File: Task01/nick/files/ESI_material_XRD/steady_state/crystal_size_analysis/Volumes_Water/1489_RVR_neatgrind.xy
4.00155 2407.000
4.04211 2231.000
4.08267 2081.000
4.12323 1988.000
4.16379 1908.000
4.20435 1861.000
4.24491 1725.000
4.28547 1782.000
4.32603 1640.000
4.36659 1571.000
4.40715 1537.000
4.44771 1454.000
4.48827 1457.000
4.52883 1376.000
4.56939 1347.000
4.60995 1295.000
4.65051 1289.000
4.69107 1256.000
4.73163 1170.000
4.77219 1132.000
4.81275 1184.000
4.85331 1248.000
4.89387 1166.000
4.93443 1068.000
4.97499 1083.000
5.01555 1053.000
5.05611 1038.000
5.09667 1137.000
5.13723 1033.000
5.17779 1007.000
5.21835 1015.000
5.25891 934.000
5.29947 1032.000
5.34003 1008.000
5.38059 945.000
5.42115 982.000
5.46171 917.000
5.50227 964.000
5.54283 950.000
5.58339 963.000
5.62395 816.000
5.66451 942.000
5.70507 857.000
5.74564 916.000
5.78620 885.000
5.82676 858.000
5.86732 828.000
5.90788 860.000
5.94844 909.000
5.98900 846.000
6.02956 816.000
6.07012 800.000
6.11068 804.000
6.15124 792.000
6.19180 826.000
6.23236 782.000
6.27292 847.000
6.31348 903.000
6.35404 881.000
6.39460 813.000
6.43516 868.000
6.47572 930.000
6.51628 830.000
6.55684 908.000
6.59740 897.000
6.63796 947.000
6.67852 1068.000
6.71908 1229.000
6.75964 1338.000
6.80020 1324.000
6.84076 1263.000
6.88132 1024.000
6.92188 878.000
6.96244 917.000
7.00300 796.000
7.04356 816.000
7.08412 817.000
7.12468 803.000
7.16524 804.000
7.20580 817.000
7.24636 765.000
7.28692 767.000
7.32748 778.000
7.36804 714.000
7.40860 737.000
7.44916 772.000
7.48972 792.000
7.53028 818.000
7.57084 754.000
7.61140 754.000
7.65197 765.000
7.69253 782.000
7.73309 768.000
7.77365 770.000
7.81421 767.000
7.85477 803.000
7.89533 752.000
7.93589 754.000
7.97645 730.000
8.01701 798.000
8.05757 828.000
8.09813 804.000
8.13869 817.000
8.17925 837.000
8.21981 835.000
8.26037 995.000
8.30093 1148.000
8.34149 1226.000
8.38205 1267.000
8.42261 1039.000
8.46317 846.000
8.50373 855.000
8.54429 788.000
8.58485 753.000
8.62541 760.000
8.66597 723.000
8.70653 703.000
8.74709 757.000
8.78765 743.000
8.82821 705.000
8.86877 664.000
8.90933 682.000
8.94989 730.000
8.99045 691.000
9.03101 719.000
9.07157 702.000
9.11213 688.000
9.15269 626.000
9.19325 646.000
9.23381 694.000
9.27437 709.000
9.31493 724.000
9.35549 707.000
9.39605 672.000
9.43661 665.000
9.47717 686.000
9.51773 678.000
9.55830 671.000
9.59886 657.000
9.63942 605.000
9.67998 676.000
9.72054 662.000
9.76110 713.000
9.80166 657.000
9.84222 666.000
9.88278 659.000
9.92334 670.000
9.96390 647.000
10.00446 655.000
10.04502 692.000
10.08558 657.000
10.12614 717.000
10.16670 620.000
10.20726 662.000
10.24782 626.000
10.28838 620.000
10.32894 652.000
10.36950 661.000
10.41006 693.000
10.45062 675.000
10.49118 734.000
10.53174 685.000
10.57230 656.000
10.61286 684.000
10.65342 691.000
10.69398 631.000
10.73454 642.000
10.77510 626.000
10.81566 614.000
10.85622 661.000
10.89678 652.000
10.93734 664.000
10.97790 651.000
11.01846 628.000
11.05902 676.000
11.09958 627.000
11.14014 640.000
11.18070 662.000
11.22126 619.000
11.26182 623.000
11.30238 648.000
11.34294 625.000
11.38350 584.000
11.42406 664.000
11.46463 661.000
11.50519 650.000
11.54575 637.000
11.58631 649.000
11.62687 609.000
11.66743 617.000
11.70799 694.000
11.74855 663.000
11.78911 629.000
11.82967 631.000
11.87023 692.000
11.91079 645.000
11.95135 655.000
11.99191 633.000
12.03247 640.000
12.07303 677.000
12.11359 636.000
12.15415 670.000
12.19471 628.000
12.23527 646.000
12.27583 673.000
12.31639 642.000
12.35695 698.000
12.39751 673.000
12.43807 717.000
12.47863 652.000
12.51919 664.000
12.55975 703.000
12.60031 664.000
12.64087 708.000
12.68143 683.000
12.72199 658.000
12.76255 723.000
12.80311 690.000
12.84367 740.000
12.88423 712.000
12.92479 742.000
12.96535 716.000
13.00591 760.000
13.04647 716.000
13.08703 712.000
13.12759 728.000
13.16815 771.000
13.20871 826.000
13.24927 735.000
13.28983 854.000
13.33039 802.000
13.37096 856.000
13.41152 833.000
13.45208 881.000
13.49264 820.000
13.53320 862.000
13.57376 861.000
13.61432 842.000
13.65488 815.000
13.69544 895.000
13.73600 864.000
13.77656 806.000
13.81712 837.000
13.85768 774.000
13.89824 788.000
13.93880 796.000
13.97936 837.000
14.01992 880.000
14.06048 811.000
14.10104 790.000
14.14160 847.000
14.18216 838.000
14.22272 816.000
14.26328 848.000
14.30384 855.000
14.34440 871.000
14.38496 802.000
14.42552 800.000
14.46608 825.000
14.50664 902.000
14.54720 903.000
14.58776 974.000
14.62832 1005.000
14.66888 1049.000
14.70944 963.000
14.75000 980.000
14.79056 933.000
14.83112 988.000
14.87168 985.000
14.91224 987.000
14.95280 990.000
14.99336 950.000
15.03392 883.000
15.07448 981.000
15.11504 910.000
15.15560 940.000
15.19616 939.000
15.23672 960.000
15.27729 915.000
15.31785 971.000
15.35841 1012.000
15.39897 960.000
15.43953 992.000
15.48009 1052.000
15.52065 979.000
15.56121 988.000
15.60177 1042.000
15.64233 1036.000
15.68289 1028.000
15.72345 1006.000
15.76401 1062.000
15.80457 989.000
15.84513 1046.000
15.88569 1039.000
15.92625 1074.000
15.96681 1109.000
16.00737 1145.000
16.04793 1157.000
16.08849 1180.000
16.12905 1174.000
16.16961 1155.000
16.21017 1165.000
16.25073 1272.000
16.29129 1304.000
16.33185 1419.000
16.37241 1445.000
16.41297 1443.000
16.45353 1375.000
16.49409 1251.000
16.53465 1284.000
16.57521 1410.000
16.61577 1402.000
16.65633 1431.000
16.69689 1396.000
16.73745 1460.000
16.77801 1473.000
16.81857 1608.000
16.85913 1523.000
16.89969 1466.000
16.94025 1493.000
16.98081 1562.000
17.02137 1605.000
17.06193 1783.000
17.10249 1784.000
17.14305 1619.000
17.18362 1550.000
17.22418 1488.000
17.26474 1465.000
17.30530 1454.000
17.34586 1449.000
17.38642 1520.000
17.42698 1448.000
17.46754 1506.000
17.50810 1437.000
17.54866 1483.000
17.58922 1500.000
17.62978 1463.000
17.67034 1533.000
17.71090 1523.000
17.75146 1572.000
17.79202 1591.000
17.83258 1684.000
17.87314 1627.000
17.91370 1779.000
17.95426 1880.000
17.99482 2028.000
18.03538 2160.000
18.07594 2219.000
18.11650 2199.000
18.15706 1910.000
18.19762 1782.000
18.23818 1724.000
18.27874 1756.000
18.31930 1699.000
18.35986 1698.000
18.40042 1662.000
18.44098 1837.000
18.48154 1720.000
18.52210 1737.000
18.56266 1895.000
18.60322 1846.000
18.64378 1885.000
18.68434 1968.000
18.72490 1922.000
18.76546 1823.000
18.80602 1742.000
18.84658 1799.000
18.88714 1735.000
18.92770 1838.000
18.96826 1848.000
19.00882 1844.000
19.04938 1844.000
19.08995 1798.000
19.13051 1732.000
19.17107 1780.000
19.21163 1810.000
19.25219 1733.000
19.29275 1761.000
19.33331 1802.000
19.37387 1909.000
19.41443 2008.000
19.45499 1981.000
19.49555 2121.000
19.53611 2121.000
19.57667 1968.000
19.61723 1991.000
19.65779 1917.000
19.69835 1900.000
19.73891 1892.000
19.77947 2066.000
19.82003 2063.000
19.86059 2107.000
19.90115 2106.000
19.94171 2118.000
19.98227 1996.000
20.02283 1997.000
20.06339 1879.000
20.10395 1881.000
20.14451 1950.000
20.18507 1941.000
20.22563 1926.000
20.26619 2014.000
20.30675 2040.000
20.34731 2018.000
20.38787 1986.000
20.42843 1876.000
20.46899 1719.000
20.50955 1747.000
20.55011 1686.000
20.59067 1630.000
20.63123 1762.000
20.67179 1595.000
20.71235 1658.000
20.75291 1650.000
20.79347 1624.000
20.83403 1632.000
20.87459 1579.000
20.91515 1561.000
20.95571 1551.000
20.99628 1716.000
21.03684 1637.000
21.07740 1716.000
21.11796 1699.000
21.15852 1715.000
21.19908 1831.000
21.23964 1851.000
21.28020 1967.000
21.32076 2056.000
21.36132 2295.000
21.40188 2318.000
21.44244 2410.000
21.48300 2452.000
21.52356 2621.000
21.56412 2354.000
21.60468 2439.000
21.64524 2251.000
21.68580 1960.000
21.72636 1865.000
21.76692 1645.000
21.80748 1556.000
21.84804 1546.000
21.88860 1527.000
21.92916 1468.000
21.96972 1430.000
22.01028 1510.000
22.05084 1430.000
22.09140 1407.000
22.13196 1370.000
22.17252 1457.000
22.21308 1377.000
22.25364 1361.000
22.29420 1345.000
22.33476 1448.000
22.37532 1310.000
22.41588 1447.000
22.45644 1416.000
22.49700 1399.000
22.53756 1418.000
22.57812 1269.000
22.61868 1399.000
22.65924 1291.000
22.69980 1374.000
22.74036 1348.000
22.78092 1319.000
22.82148 1303.000
22.86204 1323.000
22.90261 1260.000
22.94317 1331.000
22.98373 1232.000
23.02429 1282.000
23.06485 1287.000
23.10541 1171.000
23.14597 1284.000
23.18653 1252.000
23.22709 1239.000
23.26765 1190.000
23.30821 1299.000
23.34877 1366.000
23.38933 1313.000
23.42989 1335.000
23.47045 1483.000
23.51101 1423.000
23.55157 1441.000
23.59213 1388.000
23.63269 1326.000
23.67325 1237.000
23.71381 1301.000
23.75437 1239.000
23.79493 1215.000
23.83549 1164.000
23.87605 1142.000
23.91661 1151.000
23.95717 1144.000
23.99773 1196.000
24.03829 1135.000
24.07885 1059.000
24.11941 1146.000
24.15997 1131.000
24.20053 1179.000
24.24109 1146.000
24.28165 1161.000
24.32221 1173.000
24.36277 1162.000
24.40333 1167.000
24.44389 1160.000
24.48445 1164.000
24.52501 1114.000
24.56557 1027.000
24.60613 1028.000
24.64669 1120.000
24.68725 1115.000
24.72781 1032.000
24.76837 1040.000
24.80893 1021.000
24.84950 1022.000
24.89006 1054.000
24.93062 998.000
24.97118 1055.000
25.01174 1056.000
25.05230 998.000
25.09286 1103.000
25.13342 1064.000
25.17398 1051.000
25.21454 1113.000
25.25510 1099.000
25.29566 1009.000
25.33622 1037.000
25.37678 1031.000
25.41734 964.000
25.45790 1040.000
25.49846 1084.000
25.53902 1053.000
25.57958 1032.000
25.62014 934.000
25.66070 948.000
25.70126 978.000
25.74182 938.000
25.78238 962.000
25.82294 927.000
25.86350 961.000
25.90406 989.000
25.94462 949.000
25.98518 1002.000
26.02574 1041.000
26.06630 1038.000
26.10686 969.000
26.14742 992.000
26.18798 943.000
26.22854 955.000
26.26910 992.000
26.30966 955.000
26.35022 907.000
26.39078 974.000
26.43134 999.000
26.47190 997.000
26.51246 952.000
26.55302 945.000
26.59358 894.000
26.63414 953.000
26.67470 969.000
26.71526 918.000
26.75583 901.000
26.79639 988.000
26.83695 965.000
26.87751 929.000
26.91807 945.000
26.95863 943.000
26.99919 948.000
27.03975 991.000
27.08031 940.000
27.12087 914.000
27.16143 868.000
27.20199 873.000
27.24255 883.000
27.28311 889.000
27.32367 836.000
27.36423 866.000
27.40479 929.000
27.44535 876.000
27.48591 904.000
27.52647 880.000
27.56703 871.000
27.60759 838.000
27.64815 822.000
27.68871 780.000
27.72927 766.000
27.76983 747.000
27.81039 746.000
27.85095 734.000
27.89151 746.000
27.93207 807.000
27.97263 769.000
28.01319 775.000
28.05375 703.000
28.09431 711.000
28.13487 751.000
28.17543 684.000
28.21599 764.000
28.25655 788.000
28.29711 786.000
28.33767 738.000
28.37823 792.000
28.41879 834.000
28.45935 756.000
28.49991 769.000
28.54047 805.000
28.58103 783.000
28.62159 787.000
28.66216 792.000
28.70272 739.000
28.74328 740.000
28.78384 721.000
28.82440 728.000
28.86496 741.000
28.90552 769.000
28.94608 766.000
28.98664 740.000
29.02720 781.000
29.06776 741.000
29.10832 734.000
29.14888 736.000
29.18944 707.000
29.23000 768.000
29.27056 711.000
29.31112 711.000
29.35168 744.000
29.39224 715.000
29.43280 723.000
29.47336 741.000
29.51392 716.000
29.55448 690.000
29.59504 696.000
29.63560 697.000
29.67616 735.000
29.71672 749.000
29.75728 668.000
29.79784 678.000
29.83840 789.000
29.87896 738.000
29.91952 688.000
29.96008 692.000
30.00064 744.000
30.04120 704.000
30.08176 717.000
30.12232 648.000
30.16288 649.000
30.20344 659.000
30.24400 661.000
30.28456 690.000
30.32512 655.000
30.36568 678.000
30.40624 666.000
30.44680 716.000
30.48736 638.000
30.52792 653.000
30.56849 604.000
30.60905 644.000
30.64961 617.000
30.69017 604.000
30.73073 604.000
30.77129 623.000
30.81185 630.000
30.85241 631.000
30.89297 570.000
30.93353 651.000
30.97409 588.000
31.01465 586.000
31.05521 644.000
31.09577 595.000
31.13633 645.000
31.17689 631.000
31.21745 605.000
31.25801 587.000
31.29857 619.000
31.33913 614.000
31.37969 581.000
31.42025 567.000
31.46081 638.000
31.50137 598.000
31.54193 627.000
31.58249 620.000
31.62305 580.000
31.66361 644.000
31.70417 669.000
31.74473 601.000
31.78529 617.000
31.82585 603.000
31.86641 611.000
31.90697 600.000
31.94753 568.000
31.98809 563.000
32.02865 596.000
32.06921 614.000
32.10977 595.000
32.15033 549.000
32.19089 582.000
32.23145 583.000
32.27201 572.000
32.31257 535.000
32.35313 568.000
32.39369 598.000
32.43425 601.000
32.47482 598.000
32.51538 560.000
32.55594 546.000
32.59650 558.000
32.63706 540.000
32.67762 523.000
32.71818 528.000
32.75874 568.000
32.79930 547.000
32.83986 556.000
32.88042 582.000
32.92098 536.000
32.96154 568.000
33.00210 602.000
33.04266 576.000
33.08322 553.000
33.12378 575.000
33.16434 565.000
33.20490 563.000
33.24546 562.000
33.28602 613.000
33.32658 532.000
33.36714 562.000
33.40770 569.000
33.44826 547.000
33.48882 555.000
33.52938 538.000
33.56994 550.000
33.61050 489.000
33.65106 553.000
33.69162 515.000
33.73218 528.000
33.77274 597.000
33.81330 583.000
33.85386 525.000
33.89442 560.000
33.93498 543.000
33.97554 559.000
34.01610 535.000
34.05666 525.000
34.09722 542.000
34.13778 559.000
34.17834 553.000
34.21890 582.000
34.25946 549.000
34.30002 539.000
34.34058 587.000
34.38115 537.000
34.42171 620.000
34.46227 571.000
34.50283 596.000
34.54339 598.000
34.58395 588.000
34.62451 642.000
34.66507 628.000
34.70563 591.000
34.74619 575.000
34.78675 600.000
34.82731 589.000
34.86787 604.000
34.90843 602.000
34.94899 582.000
34.98955 645.000
35.03011 530.000
35.07067 552.000
35.11123 584.000
35.15179 572.000
35.19235 514.000
35.23291 571.000
35.27347 561.000
35.31403 531.000
35.35459 545.000
35.39515 543.000
35.43571 495.000
35.47627 540.000
35.51683 517.000
35.55739 560.000
35.59795 498.000
35.63851 550.000
35.67907 544.000
35.71963 547.000
35.76019 526.000
35.80075 502.000
35.84131 502.000
35.88187 542.000
35.92243 516.000
35.96299 511.000
36.00355 539.000
36.04411 513.000
36.08467 528.000
36.12523 515.000
36.16579 497.000
36.20635 533.000
36.24691 505.000
36.28748 530.000
36.32804 603.000
36.36860 506.000
36.40916 510.000
36.44972 524.000
36.49028 517.000
36.53084 544.000
36.57140 556.000
36.61196 539.000
36.65252 545.000
36.69308 548.000
36.73364 536.000
36.77420 559.000
36.81476 544.000
36.85532 575.000
36.89588 543.000
36.93644 560.000
36.97700 522.000
37.01756 508.000
37.05812 517.000
37.09868 521.000
37.13924 520.000
37.17980 519.000
37.22036 496.000
37.26092 516.000
37.30148 539.000
37.34204 560.000
37.38260 512.000
37.42316 531.000
37.46372 491.000
37.50428 513.000
37.54484 463.000
37.58540 523.000
37.62596 539.000
37.66652 557.000
37.70708 500.000
37.74764 557.000
37.78820 530.000
37.82876 503.000
37.86932 544.000
37.90988 509.000
37.95044 561.000
37.99100 563.000
38.03156 545.000
38.07212 524.000
38.11268 548.000
38.15324 513.000
38.19381 510.000
38.23437 509.000
38.27493 499.000
38.31549 522.000
38.35605 521.000
38.39661 509.000
38.43717 524.000
38.47773 518.000
38.51829 512.000
38.55885 504.000
38.59941 527.000
38.63997 543.000
38.68053 511.000
38.72109 503.000
38.76165 526.000
38.80221 516.000
38.84277 506.000
38.88333 498.000
38.92389 512.000
38.96445 546.000
39.00501 492.000
39.04557 475.000
39.08613 524.000
39.12669 545.000
39.16725 502.000
39.20781 513.000
39.24837 513.000
39.28893 544.000
39.32949 520.000
39.37005 510.000
39.41061 528.000
39.45117 560.000
39.49173 504.000
39.53229 556.000
39.57285 494.000
39.61341 523.000
39.65397 533.000
39.69453 521.000
39.73509 543.000
39.77565 535.000
39.81621 522.000
39.85677 522.000
39.89733 499.000
39.93789 525.000
39.97845 562.000
39.99873 572.000