File: Task01/nick/files/ESI_material_XRD/steady_state/crystal_size_analysis/Volumes_Water/1802_RVR_mill_water_1.0.xy
5.00155 870.000
5.05630 890.000
5.11106 829.000
5.16581 811.000
5.22057 765.000
5.27533 701.000
5.33008 784.000
5.38484 710.000
5.43960 683.000
5.49435 718.000
5.54911 674.000
5.60387 700.000
5.65862 624.000
5.71338 593.000
5.76813 566.000
5.82289 555.000
5.87765 510.000
5.93240 537.000
5.98716 530.000
6.04192 510.000
6.09667 517.000
6.15143 515.000
6.20618 508.000
6.26094 515.000
6.31570 520.000
6.37045 490.000
6.42521 503.000
6.47997 604.000
6.53472 656.000
6.58948 830.000
6.64423 1225.000
6.69899 1922.000
6.75375 3143.000
6.80850 3851.000
6.86326 3052.000
6.91802 1444.000
6.97277 803.000
7.02753 566.000
7.08228 460.000
7.13704 417.000
7.19180 434.000
7.24655 380.000
7.30131 403.000
7.35607 390.000
7.41082 369.000
7.46558 369.000
7.52034 389.000
7.57509 389.000
7.62985 358.000
7.68460 423.000
7.73936 470.000
7.79412 523.000
7.84887 532.000
7.90363 444.000
7.95839 431.000
8.01314 409.000
8.06790 468.000
8.12265 632.000
8.17741 929.000
8.23217 1360.000
8.28692 2243.000
8.34168 3573.000
8.39644 3786.000
8.45119 1983.000
8.50595 952.000
8.56070 625.000
8.61546 581.000
8.67022 514.000
8.72497 390.000
8.77973 368.000
8.83449 408.000
8.88924 361.000
8.94400 333.000
8.99875 393.000
9.05351 322.000
9.10827 363.000
9.16302 303.000
9.21778 328.000
9.27254 308.000
9.32729 313.000
9.38205 353.000
9.43681 386.000
9.49156 415.000
9.54632 396.000
9.60107 325.000
9.65583 348.000
9.71059 324.000
9.76534 400.000
9.82010 362.000
9.87486 398.000
9.92961 315.000
9.98437 305.000
10.03912 285.000
10.09388 306.000
10.14864 315.000
10.20339 314.000
10.25815 335.000
10.31291 363.000
10.36766 369.000
10.42242 480.000
10.47717 560.000
10.53193 807.000
10.58669 772.000
10.64144 591.000
10.69620 382.000
10.75096 380.000
10.80571 369.000
10.86047 337.000
10.91522 377.000
10.96998 362.000
11.02474 337.000
11.07949 280.000
11.13425 293.000
11.18901 280.000
11.24376 305.000
11.29852 273.000
11.35328 298.000
11.40803 280.000
11.46279 281.000
11.51754 260.000
11.57230 281.000
11.62706 320.000
11.68181 267.000
11.73657 290.000
11.79133 319.000
11.84608 266.000
11.90084 299.000
11.95559 275.000
12.01035 289.000
12.06511 293.000
12.11986 267.000
12.17462 273.000
12.22938 256.000
12.28413 283.000
12.33889 285.000
12.39364 317.000
12.44840 273.000
12.50316 273.000
12.55791 290.000
12.61267 309.000
12.66743 314.000
12.72218 294.000
12.77694 278.000
12.83170 288.000
12.88645 325.000
12.94121 307.000
12.99596 350.000
13.05072 380.000
13.10548 524.000
13.16023 618.000
13.21499 658.000
13.26975 688.000
13.32450 730.000
13.37926 824.000
13.43401 902.000
13.48877 1036.000
13.54353 1235.000
13.59828 1109.000
13.65304 907.000
13.70780 652.000
13.76255 478.000
13.81731 410.000
13.87206 374.000
13.92682 372.000
13.98158 328.000
14.03633 329.000
14.09109 357.000
14.14585 339.000
14.20060 349.000
14.25536 359.000
14.31011 373.000
14.36487 366.000
14.41963 417.000
14.47438 502.000
14.52914 697.000
14.58390 1014.000
14.63865 1562.000
14.69341 1680.000
14.74817 1193.000
14.80292 812.000
14.85768 944.000
14.91243 1235.000
14.96719 970.000
15.02195 636.000
15.07670 472.000
15.13146 386.000
15.18622 390.000
15.24097 349.000
15.29573 365.000
15.35048 343.000
15.40524 313.000
15.46000 363.000
15.51475 374.000
15.56951 406.000
15.62427 391.000
15.67902 407.000
15.73378 349.000
15.78853 412.000
15.84329 434.000
15.89805 426.000
15.95280 435.000
16.00756 546.000
16.06232 579.000
16.11707 599.000
16.17183 684.000
16.22658 979.000
16.28134 1513.000
16.33610 2391.000
16.39085 2668.000
16.44561 2105.000
16.50037 1555.000
16.55512 1353.000
16.60988 1613.000
16.66464 1763.000
16.71939 1946.000
16.77415 2399.000
16.82890 2338.000
16.88366 1682.000
16.93842 1662.000
16.99317 2325.000
17.04793 3211.000
17.10269 3750.000
17.15744 2985.000
17.21220 1878.000
17.26695 1223.000
17.32171 955.000
17.37647 781.000
17.43122 668.000
17.48598 622.000
17.54074 608.000
17.59549 634.000
17.65025 782.000
17.70500 890.000
17.75976 940.000
17.81452 1103.000
17.86927 1261.000
17.92403 1971.000
17.97879 3126.000
18.03354 4673.000
18.08830 5634.000
18.14305 4824.000
18.19781 3003.000
18.25257 1872.000
18.30732 1480.000
18.36208 1207.000
18.41684 1123.000
18.47159 1129.000
18.52635 1365.000
18.58111 1874.000
18.63586 2555.000
18.69062 2878.000
18.74537 2498.000
18.80013 1786.000
18.85489 1428.000
18.90964 1280.000
18.96440 1259.000
19.01916 1346.000
19.07391 1287.000
19.12867 1003.000
19.18342 817.000
19.23818 884.000
19.29294 1068.000
19.34769 1285.000
19.40245 1852.000
19.45721 2689.000
19.51196 3399.000
19.56672 3001.000
19.62147 2075.000
19.67623 1745.000
19.73099 1705.000
19.78574 2007.000
19.84050 2773.000
19.89526 3437.000
19.95001 3364.000
20.00477 2501.000
20.05952 1984.000
20.11428 2072.000
20.16904 2446.000
20.22379 2673.000
20.27855 3062.000
20.33331 3664.000
20.38806 3156.000
20.44282 1851.000
20.49758 1266.000
20.55233 1048.000
20.60709 1036.000
20.66184 843.000
20.71660 768.000
20.77136 774.000
20.82611 762.000
20.88087 818.000
20.93563 880.000
20.99038 976.000
21.04514 1099.000
21.09989 1298.000
21.15465 1649.000
21.20941 2112.000
21.26416 3075.000
21.31892 4341.000
21.37368 6028.000
21.42843 7279.000
21.48319 8278.000
21.53794 8586.000
21.59270 8394.000
21.64746 7052.000
21.70221 5201.000
21.75697 3269.000
21.81173 2058.000
21.86648 1373.000
21.92124 1118.000
21.97599 936.000
22.03075 875.000
22.08551 808.000
22.14026 799.000
22.19502 859.000
22.24978 840.000
22.30453 882.000
22.35929 996.000
22.41405 1128.000
22.46880 1270.000
22.52356 1203.000
22.57831 1086.000
22.63307 910.000
22.68783 863.000
22.74258 957.000
22.79734 1058.000
22.85210 1176.000
22.90685 1280.000
22.96161 1272.000
23.01636 1255.000
23.07112 979.000
23.12588 877.000
23.18063 830.000
23.23539 888.000
23.29015 1067.000
23.34490 1436.000
23.39966 1901.000
23.45441 2500.000
23.50917 2797.000
23.56393 2757.000
23.61868 2222.000
23.67344 1795.000
23.72820 1425.000
23.78295 1324.000
23.83771 1210.000
23.89246 1058.000
23.94722 824.000
24.00198 805.000
24.05673 728.000
24.11149 769.000
24.16625 873.000
24.22100 1037.000
24.27576 1220.000
24.33052 1723.000
24.38527 1962.000
24.44003 1847.000
24.49478 1327.000
24.54954 955.000
24.60430 886.000
24.65905 933.000
24.71381 1105.000
24.76857 1126.000
24.82332 985.000
24.87808 781.000
24.93283 791.000
24.98759 820.000
25.04235 1010.000
25.09710 1275.000
25.15186 1490.000
25.20662 1649.000
25.26137 1511.000
25.31613 1367.000
25.37088 1249.000
25.42564 1257.000
25.48040 1118.000
25.53515 983.000
25.58991 792.000
25.64467 770.000
25.69942 666.000
25.75418 718.000
25.80893 790.000
25.86369 955.000
25.91845 1061.000
25.97320 1366.000
26.02796 1587.000
26.08272 1546.000
26.13747 1459.000
26.19223 1214.000
26.24699 1040.000
26.30174 984.000
26.35650 1145.000
26.41125 1129.000
26.46601 1274.000
26.52077 1350.000
26.57552 1376.000
26.63028 1361.000
26.68504 1195.000
26.73979 1107.000
26.79455 1180.000
26.84930 1211.000
26.90406 1366.000
26.95882 1575.000
27.01357 1570.000
27.06833 1356.000
27.12309 1236.000
27.17784 1136.000
27.23260 1110.000
27.28735 1000.000
27.34211 1061.000
27.39687 1144.000
27.45162 1213.000
27.50638 1133.000
27.56114 933.000
27.61589 754.000
27.67065 671.000
27.72541 548.000
27.78016 538.000
27.83492 512.000
27.88967 489.000
27.94443 505.000
27.99919 530.000
28.05394 542.000
28.10870 548.000
28.16346 557.000
28.21821 610.000
28.27297 679.000
28.32772 738.000
28.38248 941.000
28.43724 995.000
28.49199 1082.000
28.54675 1082.000
28.60151 1007.000
28.65626 933.000
28.71102 793.000
28.76577 809.000
28.82053 719.000
28.87529 775.000
28.93004 813.000
28.98480 936.000
29.03956 932.000
29.09431 1002.000
29.14907 875.000
29.20382 808.000
29.25858 879.000
29.31334 899.000
29.36809 846.000
29.42285 843.000
29.47761 835.000
29.53236 825.000
29.58712 825.000
29.64188 807.000
29.69663 877.000
29.75139 983.000
29.80614 979.000
29.86090 952.000
29.91566 938.000
29.97041 974.000
30.02517 949.000
30.07993 897.000
30.13468 797.000
30.18944 758.000
30.24419 638.000
30.29895 695.000
30.35371 789.000
30.40846 801.000
30.46322 762.000
30.51798 642.000
30.57273 547.000
30.62749 523.000
30.68224 466.000
30.73700 453.000
30.79176 448.000
30.84651 437.000
30.90127 500.000
30.95603 587.000
31.01078 599.000
31.06554 668.000
31.12029 711.000
31.17505 620.000
31.22981 624.000
31.28456 589.000
31.33932 532.000
31.39408 507.000
31.44883 484.000
31.50359 505.000
31.55835 541.000
31.61310 536.000
31.66786 623.000
31.72261 590.000
31.77737 589.000
31.83213 625.000
31.88688 605.000
31.94164 688.000
31.99640 660.000
32.05115 646.000
32.10591 642.000
32.16066 597.000
32.21542 555.000
32.27018 533.000
32.32493 526.000
32.37969 503.000
32.43445 481.000
32.48920 497.000
32.54396 456.000
32.59871 472.000
32.65347 484.000
32.70823 522.000
32.76298 538.000
32.81774 532.000
32.87250 566.000
32.92725 601.000
32.98201 603.000
33.03676 597.000
33.09152 629.000
33.14628 596.000
33.20103 642.000
33.25579 667.000
33.31055 710.000
33.36530 741.000
33.42006 667.000
33.47482 574.000
33.52957 544.000
33.58433 524.000
33.63908 497.000
33.69384 485.000
33.74860 441.000
33.80335 497.000
33.85811 523.000
33.91287 570.000
33.96762 562.000
34.02238 606.000
34.07713 617.000
34.13189 624.000
34.18665 609.000
34.24140 600.000
34.29616 660.000
34.35092 685.000
34.40567 788.000
34.46043 851.000
34.51518 1075.000
34.56994 1190.000
34.62470 1065.000
34.67945 959.000
34.73421 772.000
34.78897 775.000
34.84372 815.000
34.89848 801.000
34.95323 865.000
35.00799 805.000
35.06275 761.000
35.11750 647.000
35.17226 624.000
35.22702 578.000
35.28177 522.000
35.33653 516.000
35.39129 528.000
35.44604 577.000
35.50080 611.000
35.55555 566.000
35.61031 573.000
35.66507 570.000
35.71982 537.000
35.77458 465.000
35.82934 433.000
35.88409 451.000
35.93885 435.000
35.99360 464.000
36.04836 504.000
36.10312 494.000
36.15787 551.000
36.21263 563.000
36.26739 573.000
36.32214 583.000
36.37690 612.000
36.43165 626.000
36.48641 625.000
36.54117 666.000
36.59592 736.000
36.65068 769.000
36.70544 743.000
36.76019 786.000
36.81495 837.000
36.86970 764.000
36.92446 699.000
36.97922 623.000
37.03397 631.000
37.08873 637.000
37.14349 599.000
37.19824 609.000
37.25300 591.000
37.30776 578.000
37.36251 530.000
37.41727 490.000
37.47202 516.000
37.52678 523.000
37.58154 572.000
37.63629 558.000
37.69105 556.000
37.74581 569.000
37.80056 586.000
37.85532 601.000
37.91007 665.000
37.96483 689.000
38.01959 721.000
38.07434 667.000
38.12910 589.000
38.18386 530.000
38.23861 489.000
38.29337 519.000
38.34812 535.000
38.40288 571.000
38.45764 551.000
38.51239 501.000
38.56715 555.000
38.62191 512.000
38.67666 473.000
38.73142 511.000
38.78617 461.000
38.84093 473.000
38.89569 458.000
38.95044 490.000
39.00520 451.000
39.05996 472.000
39.11471 521.000
39.16947 508.000
39.22423 512.000
39.27898 543.000
39.33374 510.000
39.38849 548.000
39.44325 538.000
39.49801 584.000
39.55276 590.000
39.60752 639.000
39.66228 598.000
39.71703 611.000
39.77179 641.000
39.82654 582.000
39.88130 545.000
39.93606 538.000
39.99081 591.000
40.04557 667.000
40.10033 625.000
40.15508 702.000
40.20984 727.000
40.26459 748.000
40.31935 708.000
40.37411 733.000
40.42886 701.000
40.48362 656.000
40.53838 582.000
40.59313 599.000
40.64789 518.000
40.70265 502.000
40.75740 514.000
40.81216 512.000
40.86691 464.000
40.92167 496.000
40.97643 547.000
41.03118 535.000
41.08594 515.000
41.14070 492.000
41.19545 524.000
41.25021 502.000
41.30496 623.000
41.35972 590.000
41.41448 589.000
41.46923 613.000
41.52399 692.000
41.57875 660.000
41.63350 691.000
41.68826 677.000
41.74301 697.000
41.79777 702.000
41.85253 687.000
41.90728 642.000
41.96204 554.000
42.01680 495.000
42.07155 487.000
42.12631 482.000
42.18106 456.000
42.23582 452.000
42.29058 469.000
42.34533 453.000
42.40009 444.000
42.45485 410.000
42.50960 424.000
42.56436 434.000
42.61912 442.000
42.67387 397.000
42.72863 421.000
42.78338 442.000
42.83814 426.000
42.89290 450.000
42.94765 438.000
43.00241 471.000
43.05717 480.000
43.11192 517.000
43.16668 561.000
43.22143 529.000
43.27619 574.000
43.33095 547.000
43.38570 590.000
43.44046 599.000
43.49522 641.000
43.54997 584.000
43.60473 623.000
43.65948 586.000
43.71424 576.000
43.76900 595.000
43.82375 605.000
43.87851 625.000
43.93327 607.000
43.98802 607.000
44.04278 615.000
44.09753 607.000
44.15229 587.000
44.20705 534.000
44.26180 533.000
44.31656 515.000
44.37132 459.000
44.42607 511.000
44.48083 511.000
44.53559 479.000
44.59034 452.000
44.64510 512.000
44.69985 477.000
44.75461 485.000
44.80937 473.000
44.86412 503.000
44.91888 542.000
44.97364 544.000
45.02839 498.000
45.08315 511.000
45.13790 463.000
45.19266 455.000
45.24742 491.000
45.30217 501.000
45.35693 482.000
45.41169 504.000
45.46644 521.000
45.52120 493.000
45.57595 519.000
45.63071 470.000
45.68547 489.000
45.74022 528.000
45.79498 521.000
45.84974 495.000
45.90449 492.000
45.95925 461.000
46.01400 470.000
46.06876 450.000
46.12352 466.000
46.17827 508.000
46.23303 508.000
46.28779 517.000
46.34254 535.000
46.39730 526.000
46.45206 473.000
46.50681 493.000
46.56157 530.000
46.61632 493.000
46.67108 501.000
46.72584 484.000
46.78059 502.000
46.83535 490.000
46.89011 489.000
46.94486 500.000
46.99962 481.000
47.05437 497.000
47.10913 480.000
47.16389 477.000
47.21864 556.000
47.27340 535.000
47.32816 562.000
47.38291 573.000
47.43767 596.000
47.49242 559.000
47.54718 566.000
47.60194 521.000
47.65669 494.000
47.71145 500.000
47.76621 490.000
47.82096 487.000
47.87572 461.000
47.93047 492.000
47.98523 466.000
48.03999 448.000
48.09474 452.000
48.14950 450.000
48.20426 450.000
48.25901 452.000
48.31377 462.000
48.36853 444.000
48.42328 444.000
48.47804 430.000
48.53279 431.000
48.58755 436.000
48.64231 430.000
48.69706 421.000
48.75182 412.000
48.80658 417.000
48.86133 377.000
48.91609 377.000
48.97084 374.000
49.02560 392.000
49.08036 397.000
49.13511 422.000
49.18987 434.000
49.24463 417.000
49.29938 432.000
49.35414 455.000
49.40889 425.000
49.46365 427.000
49.51841 419.000
49.57316 469.000
49.62792 442.000
49.68268 448.000
49.73743 443.000
49.79219 422.000
49.84694 441.000
49.90170 414.000
49.95646 390.000
50.01121 401.000
50.06597 434.000
50.12073 463.000
50.17548 431.000
50.23024 469.000
50.28500 500.000
50.33975 472.000
50.39451 519.000
50.44926 541.000
50.50402 474.000
50.55878 458.000
50.61353 491.000
50.66829 445.000
50.72305 451.000
50.77780 418.000
50.83256 401.000
50.88731 426.000
50.94207 436.000
50.99683 418.000
51.05158 406.000
51.10634 429.000
51.16110 439.000
51.21585 423.000
51.27061 422.000
51.32536 398.000
51.38012 441.000
51.43488 437.000
51.48963 391.000
51.54439 399.000
51.59915 425.000
51.65390 393.000
51.70866 412.000
51.76341 410.000
51.81817 386.000
51.87293 442.000
51.92768 385.000
51.98244 384.000
52.03720 374.000
52.09195 378.000
52.14671 398.000
52.20147 392.000
52.25622 398.000
52.31098 369.000
52.36573 401.000
52.42049 374.000
52.47525 413.000
52.53000 362.000
52.58476 383.000
52.63952 386.000
52.69427 420.000
52.74903 399.000
52.80378 374.000
52.85854 366.000
52.91330 385.000
52.96805 404.000
53.02281 396.000
53.07757 400.000
53.13232 402.000
53.18708 384.000
53.24183 380.000
53.29659 394.000
53.35135 406.000
53.40610 383.000
53.46086 422.000
53.51562 374.000
53.57037 406.000
53.62513 410.000
53.67989 356.000
53.73464 405.000
53.78940 399.000
53.84415 406.000
53.89891 382.000
53.95367 431.000
54.00842 406.000
54.06318 372.000
54.11794 415.000
54.17269 419.000
54.22745 374.000
54.28220 408.000
54.33696 397.000
54.39172 357.000
54.44647 391.000
54.50123 391.000
54.55599 378.000
54.61074 388.000
54.66550 371.000
54.72025 382.000
54.77501 383.000
54.82977 358.000
54.88452 367.000
54.93928 323.000
54.99404 337.000
55.04879 344.000
55.10355 375.000
55.15830 350.000
55.21306 374.000
55.26782 338.000
55.32257 355.000
55.37733 351.000
55.43209 367.000
55.48684 340.000
55.54160 331.000
55.59636 389.000
55.65111 353.000
55.70587 341.000
55.76062 372.000
55.81538 363.000
55.87014 361.000
55.92489 398.000
55.97965 380.000
56.03441 396.000
56.08916 420.000
56.14392 386.000
56.19867 372.000
56.25343 382.000
56.30819 404.000
56.36294 346.000
56.41770 365.000
56.47246 392.000
56.52721 362.000
56.58197 375.000
56.63672 385.000
56.69148 393.000
56.74624 401.000
56.80099 376.000
56.85575 378.000
56.91051 355.000
56.96526 379.000
57.02002 363.000
57.07477 368.000
57.12953 367.000
57.18429 387.000
57.23904 362.000
57.29380 343.000
57.34856 364.000
57.40331 375.000
57.45807 365.000
57.51283 408.000
57.56758 384.000
57.62234 384.000
57.67709 362.000
57.73185 377.000
57.78661 358.000
57.84136 344.000
57.89612 364.000
57.95088 360.000
58.00563 354.000
58.06039 383.000
58.11514 336.000
58.16990 313.000
58.22466 345.000
58.27941 323.000
58.33417 348.000
58.38893 350.000
58.44368 379.000
58.49844 366.000
58.55319 328.000
58.60795 363.000
58.66271 342.000
58.71746 305.000
58.77222 338.000
58.82698 362.000
58.88173 361.000
58.93649 360.000
58.99124 365.000
59.04600 369.000
59.10076 385.000
59.15551 353.000
59.21027 385.000
59.26503 371.000
59.31978 352.000
59.37454 356.000
59.42930 387.000
59.48405 351.000
59.53881 374.000
59.59356 342.000
59.64832 368.000
59.70308 362.000
59.75783 304.000
59.81259 307.000
59.86735 320.000
59.92210 321.000
59.97686 329.000
60.03161 316.000
60.08637 290.000
60.14113 337.000
60.19588 348.000
60.25064 301.000
60.30540 328.000
60.36015 356.000
60.41491 340.000
60.46966 349.000
60.52442 334.000
60.57918 337.000
60.63393 334.000
60.68869 381.000
60.74345 344.000
60.79820 335.000
60.85296 319.000
60.90771 312.000
60.96247 317.000
60.99898 323.000