File: Task01/nick/files/ESI_material_XRD/steady_state/crystal_size_analysis/Volumes_Water/2014_RVR_10ul_Water.xy
5.00155 991.000
5.04211 857.000
5.08267 836.000
5.12323 859.000
5.16379 893.000
5.20435 809.000
5.24491 832.000
5.28547 805.000
5.32603 760.000
5.36659 751.000
5.40715 766.000
5.44771 717.000
5.48827 714.000
5.52883 689.000
5.56939 718.000
5.60995 700.000
5.65051 683.000
5.69107 663.000
5.73163 678.000
5.77219 658.000
5.81275 633.000
5.85331 655.000
5.89387 611.000
5.93443 629.000
5.97499 577.000
6.01555 628.000
6.05611 613.000
6.09667 626.000
6.13723 617.000
6.17779 599.000
6.21835 591.000
6.25891 612.000
6.29947 683.000
6.34003 668.000
6.38059 680.000
6.42115 823.000
6.46171 799.000
6.50227 947.000
6.54283 1013.000
6.58339 1287.000
6.62395 1590.000
6.66451 2171.000
6.70507 2685.000
6.74564 3538.000
6.78620 4108.000
6.82676 4348.000
6.86732 4042.000
6.90788 3161.000
6.94844 2153.000
6.98900 1643.000
7.02956 1184.000
7.07012 928.000
7.11068 814.000
7.15124 768.000
7.19180 675.000
7.23236 674.000
7.27292 552.000
7.31348 549.000
7.35404 542.000
7.39460 567.000
7.43516 584.000
7.47572 596.000
7.51628 556.000
7.55684 567.000
7.59740 566.000
7.63796 536.000
7.67852 548.000
7.71908 580.000
7.75964 538.000
7.80020 581.000
7.84076 597.000
7.88132 602.000
7.92188 616.000
7.96244 648.000
8.00300 702.000
8.04356 794.000
8.08412 926.000
8.12468 1138.000
8.16524 1383.000
8.20580 1767.000
8.24636 2107.000
8.28692 2852.000
8.32748 3352.000
8.36804 3821.000
8.40860 4064.000
8.44916 3302.000
8.48972 2570.000
8.53028 1843.000
8.57084 1405.000
8.61140 1109.000
8.65197 1097.000
8.69253 862.000
8.73309 756.000
8.77365 757.000
8.81421 592.000
8.85477 658.000
8.89533 634.000
8.93589 605.000
8.97645 512.000
9.01701 600.000
9.05757 529.000
9.09813 507.000
9.13869 575.000
9.17925 562.000
9.21981 532.000
9.26037 487.000
9.30093 551.000
9.34149 511.000
9.38205 472.000
9.42261 497.000
9.46317 530.000
9.50373 537.000
9.54429 482.000
9.58485 500.000
9.62541 535.000
9.66597 504.000
9.70653 475.000
9.74709 527.000
9.78765 483.000
9.82821 503.000
9.86877 504.000
9.90933 517.000
9.94989 496.000
9.99045 499.000
10.03101 531.000
10.07157 493.000
10.11213 524.000
10.15269 549.000
10.19325 498.000
10.23381 501.000
10.27437 541.000
10.31493 539.000
10.35549 544.000
10.39605 640.000
10.43661 693.000
10.47717 772.000
10.51773 914.000
10.55830 985.000
10.59886 967.000
10.63942 889.000
10.67998 743.000
10.72054 633.000
10.76110 641.000
10.80166 504.000
10.84222 561.000
10.88278 503.000
10.92334 448.000
10.96390 481.000
11.00446 510.000
11.04502 483.000
11.08558 515.000
11.12614 455.000
11.16670 441.000
11.20726 441.000
11.24782 433.000
11.28838 517.000
11.32894 444.000
11.36950 489.000
11.41006 455.000
11.45062 453.000
11.49118 496.000
11.53174 441.000
11.57230 506.000
11.61286 465.000
11.65342 473.000
11.69398 446.000
11.73454 456.000
11.77510 490.000
11.81566 434.000
11.85622 506.000
11.89678 483.000
11.93734 421.000
11.97790 452.000
12.01846 466.000
12.05902 479.000
12.09958 429.000
12.14014 457.000
12.18070 463.000
12.22126 491.000
12.26182 456.000
12.30238 488.000
12.34294 439.000
12.38350 443.000
12.42406 509.000
12.46463 470.000
12.50519 447.000
12.54575 486.000
12.58631 537.000
12.62687 498.000
12.66743 449.000
12.70799 487.000
12.74855 511.000
12.78911 481.000
12.82967 517.000
12.87023 497.000
12.91079 557.000
12.95135 552.000
12.99191 578.000
13.03247 630.000
13.07303 658.000
13.11359 774.000
13.15415 850.000
13.19471 926.000
13.23527 943.000
13.27583 964.000
13.31639 952.000
13.35695 1046.000
13.39751 1108.000
13.43807 1157.000
13.47863 1235.000
13.51919 1427.000
13.55975 1522.000
13.60031 1431.000
13.64087 1340.000
13.68143 1082.000
13.72199 969.000
13.76255 800.000
13.80311 752.000
13.84367 658.000
13.88423 696.000
13.92479 592.000
13.96535 587.000
14.00591 610.000
14.04647 550.000
14.08703 543.000
14.12759 572.000
14.16815 597.000
14.20871 605.000
14.24927 602.000
14.28983 637.000
14.33039 651.000
14.37096 653.000
14.41152 626.000
14.45208 762.000
14.49264 813.000
14.53320 954.000
14.57376 1163.000
14.61432 1493.000
14.65488 1777.000
14.69544 1899.000
14.73600 1853.000
14.77656 1693.000
14.81712 1351.000
14.85768 1386.000
14.89824 1398.000
14.93880 1421.000
14.97936 1274.000
15.01992 1102.000
15.06048 889.000
15.10104 811.000
15.14160 683.000
15.18216 651.000
15.22272 674.000
15.26328 666.000
15.30384 689.000
15.34440 603.000
15.38496 678.000
15.42552 627.000
15.46608 602.000
15.50664 643.000
15.54720 661.000
15.58776 659.000
15.62832 655.000
15.66888 676.000
15.70944 667.000
15.75000 651.000
15.79056 678.000
15.83112 740.000
15.87168 698.000
15.91224 755.000
15.95280 775.000
15.99336 810.000
16.03392 887.000
16.07448 876.000
16.11504 1003.000
16.15560 1142.000
16.19616 1306.000
16.23672 1604.000
16.27729 1743.000
16.31785 2103.000
16.35841 2495.000
16.39897 2785.000
16.43953 2745.000
16.48009 2366.000
16.52065 2252.000
16.56121 2151.000
16.60177 2129.000
16.64233 2174.000
16.68289 2205.000
16.72345 2238.000
16.76401 2543.000
16.80457 2563.000
16.84513 2537.000
16.88569 2287.000
16.92625 2132.000
16.96681 2312.000
17.00737 2618.000
17.04793 3115.000
17.08849 3922.000
17.12905 4513.000
17.16961 4390.000
17.21017 3544.000
17.25073 2958.000
17.29129 2126.000
17.33185 1671.000
17.37241 1407.000
17.41297 1338.000
17.45353 1161.000
17.49409 1167.000
17.53465 1065.000
17.57521 1062.000
17.61577 1100.000
17.65633 1117.000
17.69689 1182.000
17.73745 1232.000
17.77801 1390.000
17.81857 1416.000
17.85913 1480.000
17.89969 1793.000
17.94025 2291.000
17.98081 2946.000
18.02137 3740.000
18.06193 5095.000
18.10249 6203.000
18.14305 6362.000
18.18362 5822.000
18.22418 4454.000
18.26474 3285.000
18.30530 2445.000
18.34586 2062.000
18.38642 1845.000
18.42698 1639.000
18.46754 1611.000
18.50810 1733.000
18.54866 1845.000
18.58922 2152.000
18.62978 2611.000
18.67034 2989.000
18.71090 3465.000
18.75146 3374.000
18.79202 3046.000
18.83258 2699.000
18.87314 2337.000
18.91370 1998.000
18.95426 1845.000
18.99482 1896.000
19.03538 1879.000
19.07594 1742.000
19.11650 1689.000
19.15706 1600.000
19.19762 1539.000
19.23818 1477.000
19.27874 1668.000
19.31930 1770.000
19.35986 2024.000
19.40042 2273.000
19.44098 2755.000
19.48154 3075.000
19.52210 3483.000
19.56266 3391.000
19.60322 3258.000
19.64378 2907.000
19.68434 2655.000
19.72490 2442.000
19.76546 2646.000
19.80602 2841.000
19.84658 3090.000
19.88714 3557.000
19.92770 3817.000
19.96826 4072.000
20.00882 3855.000
20.04938 3282.000
20.08995 3082.000
20.13051 2873.000
20.17107 2894.000
20.21163 3060.000
20.25219 3392.000
20.29275 3514.000
20.33331 3878.000
20.37387 3825.000
20.41443 3451.000
20.45499 2841.000
20.49555 2270.000
20.53611 1900.000
20.57667 1693.000
20.61723 1571.000
20.65779 1446.000
20.69835 1391.000
20.73891 1272.000
20.77947 1310.000
20.82003 1347.000
20.86059 1300.000
20.90115 1293.000
20.94171 1346.000
20.98227 1457.000
21.02283 1488.000
21.06339 1665.000
21.10395 1816.000
21.14451 2074.000
21.18507 2403.000
21.22563 2798.000
21.26619 3374.000
21.30675 4213.000
21.34731 5016.000
21.38787 6231.000
21.42843 7250.000
21.46899 8325.000
21.50955 8944.000
21.55011 9307.000
21.59067 9333.000
21.63123 8778.000
21.67179 7984.000
21.71235 6935.000
21.75291 5451.000
21.79347 4218.000
21.83403 3362.000
21.87459 2539.000
21.91515 2145.000
21.95571 1815.000
21.99628 1612.000
22.03684 1440.000
22.07740 1320.000
22.11796 1257.000
22.15852 1337.000
22.19908 1249.000
22.23964 1181.000
22.28020 1242.000
22.32076 1274.000
22.36132 1306.000
22.40188 1361.000
22.44244 1432.000
22.48300 1587.000
22.52356 1628.000
22.56412 1647.000
22.60468 1523.000
22.64524 1516.000
22.68580 1377.000
22.72636 1415.000
22.76692 1379.000
22.80748 1448.000
22.84804 1469.000
22.88860 1480.000
22.92916 1613.000
22.96972 1501.000
23.01028 1521.000
23.05084 1439.000
23.09140 1404.000
23.13196 1267.000
23.17252 1295.000
23.21308 1283.000
23.25364 1334.000
23.29420 1457.000
23.33476 1559.000
23.37532 1802.000
23.41588 2143.000
23.45644 2430.000
23.49700 2823.000
23.53756 3079.000
23.57812 3101.000
23.61868 2897.000
23.65924 2466.000
23.69980 2266.000
23.74036 2081.000
23.78092 1840.000
23.82148 1647.000
23.86204 1593.000
23.90261 1468.000
23.94317 1388.000
23.98373 1294.000
24.02429 1239.000
24.06485 1150.000
24.10541 1175.000
24.14597 1198.000
24.18653 1352.000
24.22709 1372.000
24.26765 1442.000
24.30821 1626.000
24.34877 1864.000
24.38933 1927.000
24.42989 1943.000
24.47045 1906.000
24.51101 1639.000
24.55157 1459.000
24.59213 1328.000
24.63269 1273.000
24.67325 1317.000
24.71381 1293.000
24.75437 1318.000
24.79493 1319.000
24.83549 1209.000
24.87605 1199.000
24.91661 1166.000
24.95717 1081.000
24.99773 1175.000
25.03829 1241.000
25.07885 1352.000
25.11941 1507.000
25.15997 1696.000
25.20053 1718.000
25.24109 1814.000
25.28165 1766.000
25.32221 1690.000
25.36277 1603.000
25.40333 1556.000
25.44389 1560.000
25.48445 1446.000
25.52501 1352.000
25.56557 1284.000
25.60613 1189.000
25.64669 1121.000
25.68725 1068.000
25.72781 1018.000
25.76837 1025.000
25.80893 1128.000
25.84950 1176.000
25.89006 1160.000
25.93062 1325.000
25.97118 1447.000
26.01174 1582.000
26.05230 1694.000
26.09286 1753.000
26.13342 1792.000
26.17398 1644.000
26.21454 1519.000
26.25510 1437.000
26.29566 1363.000
26.33622 1309.000
26.37678 1364.000
26.41734 1374.000
26.45790 1396.000
26.49846 1574.000
26.53902 1590.000
26.57958 1716.000
26.62014 1634.000
26.66070 1630.000
26.70126 1557.000
26.74182 1539.000
26.78238 1455.000
26.82294 1439.000
26.86350 1455.000
26.90406 1587.000
26.94462 1635.000
26.98518 1656.000
27.02574 1737.000
27.06630 1643.000
27.10686 1559.000
27.14742 1571.000
27.18798 1452.000
27.22854 1307.000
27.26910 1355.000
27.30966 1350.000
27.35022 1298.000
27.39078 1286.000
27.43134 1279.000
27.47190 1305.000
27.51246 1349.000
27.55302 1228.000
27.59358 1133.000
27.63414 1115.000
27.67470 907.000
27.71526 819.000
27.75583 773.000
27.79639 769.000
27.83695 710.000
27.87751 799.000
27.91807 683.000
27.95863 700.000
27.99919 687.000
28.03975 710.000
28.08031 678.000
28.12087 719.000
28.16143 704.000
28.20199 784.000
28.24255 840.000
28.28311 884.000
28.32367 891.000
28.36423 1029.000
28.40479 1055.000
28.44535 1125.000
28.48591 1244.000
28.52647 1181.000
28.56703 1251.000
28.60759 1138.000
28.64815 1151.000
28.68871 1027.000
28.72927 990.000
28.76983 942.000
28.81039 943.000
28.85095 931.000
28.89151 942.000
28.93207 1045.000
28.97263 950.000
29.01319 1038.000
29.05375 1087.000
29.09431 1092.000
29.13487 1101.000
29.17543 1087.000
29.21599 1062.000
29.25655 1024.000
29.29711 1034.000
29.33767 1018.000
29.37823 1054.000
29.41879 1040.000
29.45935 1041.000
29.49991 961.000
29.54047 990.000
29.58103 971.000
29.62159 988.000
29.66216 1021.000
29.70272 999.000
29.74328 1020.000
29.78384 1081.000
29.82440 1068.000
29.86496 1103.000
29.90552 1099.000
29.94608 1121.000
29.98664 1119.000
30.02720 1023.000
30.06776 1069.000
30.10832 1049.000
30.14888 928.000
30.18944 932.000
30.23000 876.000
30.27056 851.000
30.31112 800.000
30.35168 834.000
30.39224 854.000
30.43280 902.000
30.47336 894.000
30.51392 820.000
30.55448 753.000
30.59504 732.000
30.63560 681.000
30.67616 596.000
30.71672 611.000
30.75728 610.000
30.79784 652.000
30.83840 594.000
30.87896 604.000
30.91952 684.000
30.96008 631.000
31.00064 666.000
31.04120 727.000
31.08176 769.000
31.12232 780.000
31.16288 817.000
31.20344 791.000
31.24400 778.000
31.28456 726.000
31.32512 738.000
31.36568 658.000
31.40624 648.000
31.44680 682.000
31.48736 665.000
31.52792 583.000
31.56849 656.000
31.60905 663.000
31.64961 645.000
31.69017 668.000
31.73073 717.000
31.77129 818.000
31.81185 705.000
31.85241 708.000
31.89297 744.000
31.93353 730.000
31.97409 750.000
32.01465 763.000
32.05521 763.000
32.09577 731.000
32.13633 730.000
32.17689 750.000
32.21745 689.000
32.25801 688.000
32.29857 620.000
32.33913 670.000
32.37969 652.000
32.42025 629.000
32.46081 581.000
32.50137 638.000
32.54193 611.000
32.58249 564.000
32.62305 622.000
32.66361 613.000
32.70417 597.000
32.74473 650.000
32.78529 651.000
32.82585 665.000
32.86641 655.000
32.90697 694.000
32.94753 679.000
32.98809 709.000
33.02865 741.000
33.06921 702.000
33.10977 724.000
33.15033 710.000
33.19089 739.000
33.23145 767.000
33.27201 790.000
33.31257 809.000
33.35313 844.000
33.39369 820.000
33.43425 791.000
33.47482 702.000
33.51538 655.000
33.55594 637.000
33.59650 607.000
33.63706 633.000
33.67762 598.000
33.71818 644.000
33.75874 563.000
33.79930 623.000
33.83986 582.000
33.88042 641.000
33.92098 690.000
33.96154 668.000
34.00210 661.000
34.04266 678.000
34.08322 774.000
34.12378 707.000
34.16434 732.000
34.20490 746.000
34.24546 776.000
34.28602 777.000
34.32658 811.000
34.36714 869.000
34.40770 848.000
34.44826 921.000
34.48882 1020.000
34.52938 1042.000
34.56994 1138.000
34.61050 1173.000
34.65106 1180.000
34.69162 1082.000
34.73218 990.000
34.77274 935.000
34.81330 929.000
34.85386 879.000
34.89442 884.000
34.93498 946.000
34.97554 976.000
35.01610 887.000
35.05666 876.000
35.09722 900.000
35.13778 821.000
35.17834 766.000
35.21890 792.000
35.25946 706.000
35.30002 685.000
35.34058 646.000
35.38115 627.000
35.42171 681.000
35.46227 686.000
35.50283 664.000
35.54339 655.000
35.58395 666.000
35.62451 681.000
35.66507 653.000
35.70563 671.000
35.74619 631.000
35.78675 618.000
35.82731 600.000
35.86787 601.000
35.90843 547.000
35.94899 576.000
35.98955 561.000
36.03011 631.000
36.07067 594.000
36.11123 636.000
36.15179 604.000
36.19235 608.000
36.23291 665.000
36.27347 627.000
36.31403 675.000
36.35459 686.000
36.39515 661.000
36.43571 677.000
36.47627 755.000
36.51683 750.000
36.55739 750.000
36.59795 806.000
36.63851 884.000
36.67907 822.000
36.71963 841.000
36.76019 920.000
36.80075 855.000
36.84131 948.000
36.88187 801.000
36.92243 786.000
36.96299 802.000
37.00355 767.000
37.04411 724.000
37.08467 706.000
37.12523 799.000
37.16579 761.000
37.20635 723.000
37.24691 743.000
37.28748 665.000
37.32804 694.000
37.36860 629.000
37.40916 672.000
37.44972 636.000
37.49028 617.000
37.53084 663.000
37.57140 605.000
37.61196 651.000
37.65252 608.000
37.69308 670.000
37.73364 660.000
37.77420 695.000
37.81476 744.000
37.85532 719.000
37.89588 709.000
37.93644 740.000
37.97700 724.000
38.01756 765.000
38.05812 724.000
38.09868 789.000
38.13924 742.000
38.17980 683.000
38.22036 659.000
38.26092 646.000
38.30148 679.000
38.34204 675.000
38.38260 598.000
38.42316 646.000
38.46372 596.000
38.50428 629.000
38.54484 592.000
38.58540 615.000
38.62596 605.000
38.66652 594.000
38.70708 600.000
38.74764 586.000
38.78820 555.000
38.82876 529.000
38.86932 610.000
38.90988 579.000
38.95044 554.000
38.99100 584.000
39.03156 543.000
39.07212 562.000
39.11268 602.000
39.15324 596.000
39.19381 585.000
39.23437 600.000
39.27493 597.000
39.31549 601.000
39.35605 657.000
39.39661 644.000
39.43717 629.000
39.47773 657.000
39.51829 667.000
39.55885 670.000
39.59941 667.000
39.63997 733.000
39.68053 742.000
39.72109 712.000
39.76165 691.000
39.80221 736.000
39.84277 680.000
39.88333 685.000
39.92389 713.000
39.96445 738.000
40.00501 737.000
40.04557 711.000
40.08613 730.000
40.12669 733.000
40.16725 804.000
40.20781 771.000
40.24837 822.000
40.28893 857.000
40.32949 839.000
40.37005 822.000
40.41061 776.000
40.45117 802.000
40.49173 763.000
40.53229 717.000
40.57285 666.000
40.61341 671.000
40.65397 655.000
40.69453 621.000
40.73509 611.000
40.77565 609.000
40.81621 588.000
40.85677 638.000
40.89733 632.000
40.93789 633.000
40.97845 597.000
41.01901 588.000
41.05957 603.000
41.10014 629.000
41.14070 634.000
41.18126 614.000
41.22182 632.000
41.26238 664.000
41.30294 679.000
41.34350 690.000
41.38406 750.000
41.42462 743.000
41.46518 712.000
41.50574 719.000
41.54630 728.000
41.58686 708.000
41.62742 710.000
41.66798 765.000
41.70854 747.000
41.74910 815.000
41.78966 769.000
41.83022 787.000
41.87078 757.000
41.91134 696.000
41.95190 641.000
41.99246 609.000
42.03302 582.000
42.07358 588.000
42.11414 538.000
42.15470 571.000
42.19526 550.000
42.23582 564.000
42.27638 546.000
42.31694 556.000
42.35750 559.000
42.39806 525.000
42.43862 508.000
42.47918 526.000
42.51974 516.000
42.56030 539.000
42.60086 505.000
42.64142 531.000
42.68198 489.000
42.72254 508.000
42.76310 513.000
42.80366 529.000
42.84422 529.000
42.88478 507.000
42.92534 472.000
42.96590 573.000
43.00647 547.000
43.04703 559.000
43.08759 550.000
43.12815 597.000
43.16871 620.000
43.20927 639.000
43.24983 636.000
43.29039 663.000
43.33095 654.000
43.37151 683.000
43.41207 685.000
43.45263 626.000
43.49319 687.000
43.53375 666.000
43.57431 688.000
43.61487 660.000
43.65543 669.000
43.69599 648.000
43.73655 694.000
43.77711 709.000
43.81767 696.000
43.85823 761.000
43.89879 701.000
43.93935 768.000
43.97991 745.000
44.02047 716.000
44.06103 719.000
44.10159 718.000
44.14215 685.000
44.18271 740.000
44.22327 665.000
44.26383 647.000
44.30439 639.000
44.34495 607.000
44.38551 578.000
44.42607 560.000
44.46663 595.000
44.50719 567.000
44.54775 587.000
44.58831 583.000
44.62887 574.000
44.66943 594.000
44.70999 597.000
44.75055 571.000
44.79111 610.000
44.83167 586.000
44.87223 565.000
44.91280 584.000
44.95336 570.000
44.99392 584.000
45.03448 600.000
45.07504 615.000
45.11560 522.000
45.15616 554.000
45.19672 589.000
45.23728 571.000
45.27784 532.000
45.31840 550.000
45.35896 556.000
45.39952 569.000
45.44008 542.000
45.48064 509.000
45.52120 611.000
45.56176 535.000
45.60232 575.000
45.64288 576.000
45.68344 600.000
45.72400 644.000
45.76456 566.000
45.80512 593.000
45.84568 540.000
45.88624 578.000
45.92680 598.000
45.96736 595.000
46.00792 605.000
46.04848 555.000
46.08904 556.000
46.12960 525.000
46.17016 558.000
46.21072 531.000
46.25128 545.000
46.29184 571.000
46.33240 580.000
46.37296 531.000
46.41352 595.000
46.45408 595.000
46.49464 589.000
46.53520 579.000
46.57576 563.000
46.61632 572.000
46.65688 660.000
46.69744 603.000
46.73800 575.000
46.77856 561.000
46.81913 614.000
46.85969 553.000
46.90025 588.000
46.94081 501.000
46.98137 567.000
47.02193 615.000
47.06249 544.000
47.10305 535.000
47.14361 614.000
47.18417 566.000
47.22473 597.000
47.26529 555.000
47.30585 580.000
47.34641 623.000
47.38697 599.000
47.42753 639.000
47.46809 601.000
47.50865 622.000
47.54921 598.000
47.58977 591.000
47.63033 631.000
47.67089 566.000
47.71145 593.000
47.75201 594.000
47.79257 581.000
47.83313 570.000
47.87369 561.000
47.91425 565.000
47.95481 543.000
47.99537 503.000
48.03593 542.000
48.07649 518.000
48.11705 489.000
48.15761 473.000
48.19817 508.000
48.23873 501.000
48.27929 498.000
48.31985 519.000
48.36041 476.000
48.40097 470.000
48.44153 506.000
48.48209 510.000
48.52265 501.000
48.56321 464.000
48.60377 511.000
48.64433 472.000
48.68489 507.000
48.72546 489.000
48.76602 458.000
48.80658 488.000
48.84714 471.000
48.88770 480.000
48.92826 479.000
48.96882 509.000
49.00938 437.000
49.04994 466.000
49.09050 468.000
49.13106 482.000
49.17162 517.000
49.21218 484.000
49.25274 417.000
49.29330 454.000
49.33386 451.000
49.37442 472.000
49.41498 500.000
49.45554 481.000
49.49610 449.000
49.53666 493.000
49.57722 484.000
49.61778 476.000
49.65834 480.000
49.69890 504.000
49.73946 482.000
49.78002 488.000
49.82058 491.000
49.86114 527.000
49.90170 479.000
49.94226 491.000
49.98282 474.000
50.00310 502.000