File: Task01/nick/files/ESI_material_XRD/steady_state/crystal_size_analysis/Volumes_MeCN/1919_RVR_40ul_mill_MeCN.xy
5.00155 910.000
5.04211 863.000
5.08267 814.000
5.12323 838.000
5.16379 900.000
5.20435 766.000
5.24491 815.000
5.28547 775.000
5.32603 722.000
5.36659 669.000
5.40715 686.000
5.44771 726.000
5.48827 698.000
5.52883 714.000
5.56939 679.000
5.60995 621.000
5.65051 617.000
5.69107 625.000
5.73163 568.000
5.77219 622.000
5.81275 594.000
5.85331 572.000
5.89387 559.000
5.93443 563.000
5.97499 569.000
6.01555 555.000
6.05611 545.000
6.09667 558.000
6.13723 586.000
6.17779 556.000
6.21835 584.000
6.25891 603.000
6.29947 641.000
6.34003 629.000
6.38059 746.000
6.42115 768.000
6.46171 793.000
6.50227 649.000
6.54283 671.000
6.58339 741.000
6.62395 871.000
6.66451 1000.000
6.70507 1455.000
6.74564 1995.000
6.78620 2633.000
6.82676 3096.000
6.86732 2738.000
6.90788 1784.000
6.94844 1066.000
6.98900 704.000
7.02956 532.000
7.07012 486.000
7.11068 504.000
7.15124 449.000
7.19180 450.000
7.23236 394.000
7.27292 459.000
7.31348 469.000
7.35404 420.000
7.39460 404.000
7.43516 412.000
7.47572 470.000
7.51628 433.000
7.55684 420.000
7.59740 448.000
7.63796 427.000
7.67852 477.000
7.71908 448.000
7.75964 467.000
7.80020 459.000
7.84076 445.000
7.88132 412.000
7.92188 393.000
7.96244 459.000
8.00300 461.000
8.04356 486.000
8.08412 515.000
8.12468 561.000
8.16524 704.000
8.20580 827.000
8.24636 1121.000
8.28692 1647.000
8.32748 2388.000
8.36804 3229.000
8.40860 3439.000
8.44916 2602.000
8.48972 1838.000
8.53028 1929.000
8.57084 2573.000
8.61140 3426.000
8.65197 3764.000
8.69253 2897.000
8.73309 1774.000
8.77365 1107.000
8.81421 760.000
8.85477 660.000
8.89533 583.000
8.93589 574.000
8.97645 531.000
9.01701 533.000
9.05757 531.000
9.09813 506.000
9.13869 473.000
9.17925 470.000
9.21981 515.000
9.26037 542.000
9.30093 604.000
9.34149 708.000
9.38205 996.000
9.42261 1398.000
9.46317 1973.000
9.50373 2109.000
9.54429 1714.000
9.58485 1131.000
9.62541 859.000
9.66597 840.000
9.70653 876.000
9.74709 1210.000
9.78765 1605.000
9.82821 2389.000
9.86877 2747.000
9.90933 2262.000
9.94989 1387.000
9.99045 886.000
10.03101 697.000
10.07157 620.000
10.11213 542.000
10.15269 466.000
10.19325 472.000
10.23381 458.000
10.27437 406.000
10.31493 454.000
10.35549 482.000
10.39605 504.000
10.43661 587.000
10.47717 652.000
10.51773 748.000
10.55830 860.000
10.59886 790.000
10.63942 687.000
10.67998 585.000
10.72054 521.000
10.76110 555.000
10.80166 657.000
10.84222 822.000
10.88278 1142.000
10.92334 1604.000
10.96390 1788.000
11.00446 1330.000
11.04502 881.000
11.08558 640.000
11.12614 481.000
11.16670 434.000
11.20726 418.000
11.24782 395.000
11.28838 401.000
11.32894 389.000
11.36950 406.000
11.41006 362.000
11.45062 345.000
11.49118 320.000
11.53174 367.000
11.57230 327.000
11.61286 338.000
11.65342 420.000
11.69398 376.000
11.73454 353.000
11.77510 368.000
11.81566 391.000
11.85622 338.000
11.89678 395.000
11.93734 386.000
11.97790 371.000
12.01846 364.000
12.05902 373.000
12.09958 366.000
12.14014 383.000
12.18070 382.000
12.22126 371.000
12.26182 393.000
12.30238 382.000
12.34294 405.000
12.38350 417.000
12.42406 360.000
12.46463 435.000
12.50519 401.000
12.54575 377.000
12.58631 329.000
12.62687 358.000
12.66743 376.000
12.70799 379.000
12.74855 390.000
12.78911 366.000
12.82967 398.000
12.87023 421.000
12.91079 475.000
12.95135 443.000
12.99191 541.000
13.03247 574.000
13.07303 510.000
13.11359 576.000
13.15415 676.000
13.19471 841.000
13.23527 928.000
13.27583 926.000
13.31639 931.000
13.35695 891.000
13.39751 831.000
13.43807 786.000
13.47863 879.000
13.51919 1119.000
13.55975 1263.000
13.60031 1425.000
13.64087 1667.000
13.68143 1926.000
13.72199 2096.000
13.76255 1976.000
13.80311 1735.000
13.84367 1470.000
13.88423 1041.000
13.92479 743.000
13.96535 561.000
14.00591 457.000
14.04647 502.000
14.08703 479.000
14.12759 444.000
14.16815 423.000
14.20871 462.000
14.24927 453.000
14.28983 476.000
14.33039 423.000
14.37096 465.000
14.41152 391.000
14.45208 467.000
14.49264 536.000
14.53320 529.000
14.57376 721.000
14.61432 883.000
14.65488 1140.000
14.69544 1279.000
14.73600 1153.000
14.77656 902.000
14.81712 895.000
14.85768 1009.000
14.89824 1007.000
14.93880 1165.000
14.97936 983.000
15.01992 714.000
15.06048 538.000
15.10104 541.000
15.14160 474.000
15.18216 460.000
15.22272 413.000
15.26328 450.000
15.30384 467.000
15.34440 483.000
15.38496 495.000
15.42552 491.000
15.46608 518.000
15.50664 592.000
15.54720 696.000
15.58776 861.000
15.62832 837.000
15.66888 792.000
15.70944 796.000
15.75000 700.000
15.79056 663.000
15.83112 682.000
15.87168 799.000
15.91224 976.000
15.95280 1217.000
15.99336 1644.000
16.03392 2188.000
16.07448 2623.000
16.11504 2444.000
16.15560 1834.000
16.19616 1305.000
16.23672 1149.000
16.27729 1317.000
16.31785 1708.000
16.35841 2213.000
16.39897 2561.000
16.43953 2403.000
16.48009 1865.000
16.52065 1620.000
16.56121 1807.000
16.60177 2269.000
16.64233 2685.000
16.68289 3058.000
16.72345 2742.000
16.76401 2243.000
16.80457 2135.000
16.84513 1928.000
16.88569 1524.000
16.92625 1198.000
16.96681 1247.000
17.00737 1486.000
17.04793 1937.000
17.08849 2377.000
17.12905 2766.000
17.16961 2509.000
17.21017 2263.000
17.25073 2313.000
17.29129 2846.000
17.33185 3356.000
17.37241 3260.000
17.41297 2366.000
17.45353 1608.000
17.49409 1229.000
17.53465 1147.000
17.57521 1345.000
17.61577 1634.000
17.65633 2332.000
17.69689 3429.000
17.73745 4836.000
17.77801 5385.000
17.81857 4284.000
17.85913 2864.000
17.89969 2091.000
17.94025 2156.000
17.98081 2238.000
18.02137 2633.000
18.06193 3390.000
18.10249 3836.000
18.14305 3782.000
18.18362 3436.000
18.22418 3195.000
18.26474 3592.000
18.30530 4256.000
18.34586 5024.000
18.38642 5380.000
18.42698 4421.000
18.46754 3021.000
18.50810 2177.000
18.54866 1573.000
18.58922 1613.000
18.62978 1854.000
18.67034 2171.000
18.71090 2274.000
18.75146 2256.000
18.79202 2203.000
18.83258 2317.000
18.87314 2682.000
18.91370 2798.000
18.95426 2681.000
18.99482 2276.000
19.03538 2068.000
19.07594 1773.000
19.11650 1479.000
19.15706 1184.000
19.19762 1117.000
19.23818 1205.000
19.27874 1322.000
19.31930 1506.000
19.35986 1713.000
19.40042 2113.000
19.44098 2848.000
19.48154 3548.000
19.52210 3849.000
19.56266 3543.000
19.60322 2785.000
19.64378 2379.000
19.68434 2255.000
19.72490 2597.000
19.76546 3065.000
19.80602 3162.000
19.84658 3112.000
19.88714 3405.000
19.92770 3795.000
19.96826 4224.000
20.00882 4512.000
20.04938 4502.000
20.08995 3861.000
20.13051 3127.000
20.17107 2737.000
20.21163 2670.000
20.25219 2568.000
20.29275 2790.000
20.33331 3231.000
20.37387 3315.000
20.41443 2797.000
20.45499 2221.000
20.49555 2092.000
20.53611 2348.000
20.57667 2965.000
20.61723 3325.000
20.65779 3212.000
20.69835 2455.000
20.73891 1870.000
20.77947 1325.000
20.82003 1240.000
20.86059 1205.000
20.90115 1215.000
20.94171 1246.000
20.98227 1202.000
21.02283 1093.000
21.06339 1162.000
21.10395 1224.000
21.14451 1398.000
21.18507 1572.000
21.22563 1891.000
21.26619 2159.000
21.30675 2820.000
21.34731 3647.000
21.38787 4466.000
21.42843 5394.000
21.46899 6180.000
21.50955 6578.000
21.55011 6933.000
21.59067 7015.000
21.63123 7318.000
21.67179 7472.000
21.71235 6389.000
21.75291 4491.000
21.79347 3053.000
21.83403 2066.000
21.87459 1600.000
21.91515 1341.000
21.95571 1417.000
21.99628 1449.000
22.03684 1428.000
22.07740 1679.000
22.11796 1841.000
22.15852 2109.000
22.19908 2094.000
22.23964 1836.000
22.28020 1520.000
22.32076 1279.000
22.36132 1097.000
22.40188 1141.000
22.44244 1225.000
22.48300 1238.000
22.52356 1326.000
22.56412 1390.000
22.60468 1319.000
22.64524 1265.000
22.68580 1421.000
22.72636 1562.000
22.76692 1545.000
22.80748 1480.000
22.84804 1410.000
22.88860 1331.000
22.92916 1238.000
22.96972 1219.000
23.01028 1251.000
23.05084 1307.000
23.09140 1183.000
23.13196 1009.000
23.17252 918.000
23.21308 1036.000
23.25364 1061.000
23.29420 1134.000
23.33476 1407.000
23.37532 1648.000
23.41588 1986.000
23.45644 2309.000
23.49700 2411.000
23.53756 2301.000
23.57812 2142.000
23.61868 1940.000
23.65924 1710.000
23.69980 1558.000
23.74036 1448.000
23.78092 1327.000
23.82148 1270.000
23.86204 1307.000
23.90261 1228.000
23.94317 1299.000
23.98373 1330.000
24.02429 1341.000
24.06485 1278.000
24.10541 1267.000
24.14597 1410.000
24.18653 1395.000
24.22709 1404.000
24.26765 1317.000
24.30821 1320.000
24.34877 1564.000
24.38933 1731.000
24.42989 1889.000
24.47045 1713.000
24.51101 1425.000
24.55157 1204.000
24.59213 1077.000
24.63269 1107.000
24.67325 1208.000
24.71381 1476.000
24.75437 1537.000
24.79493 1532.000
24.83549 1336.000
24.87605 1223.000
24.91661 1024.000
24.95717 989.000
24.99773 936.000
25.03829 994.000
25.07885 1088.000
25.11941 1269.000
25.15997 1533.000
25.20053 1745.000
25.24109 2073.000
25.28165 2382.000
25.32221 2587.000
25.36277 2360.000
25.40333 2180.000
25.44389 1904.000
25.48445 1666.000
25.52501 1335.000
25.56557 1178.000
25.60613 982.000
25.64669 1001.000
25.68725 939.000
25.72781 1032.000
25.76837 1170.000
25.80893 1271.000
25.84950 1262.000
25.89006 1149.000
25.93062 1279.000
25.97118 1316.000
26.01174 1610.000
26.05230 1853.000
26.09286 1939.000
26.13342 2009.000
26.17398 1746.000
26.21454 1497.000
26.25510 1452.000
26.29566 1377.000
26.33622 1391.000
26.37678 1412.000
26.41734 1410.000
26.45790 1363.000
26.49846 1533.000
26.53902 1431.000
26.57958 1368.000
26.62014 1193.000
26.66070 1057.000
26.70126 1000.000
26.74182 1088.000
26.78238 978.000
26.82294 1034.000
26.86350 1227.000
26.90406 1267.000
26.94462 1272.000
26.98518 1275.000
27.02574 1241.000
27.06630 1088.000
27.10686 1099.000
27.14742 1016.000
27.18798 929.000
27.22854 934.000
27.26910 915.000
27.30966 902.000
27.35022 953.000
27.39078 992.000
27.43134 994.000
27.47190 1068.000
27.51246 1072.000
27.55302 997.000
27.59358 927.000
27.63414 748.000
27.67470 657.000
27.71526 587.000
27.75583 610.000
27.79639 514.000
27.83695 586.000
27.87751 620.000
27.91807 559.000
27.95863 589.000
27.99919 611.000
28.03975 607.000
28.08031 629.000
28.12087 574.000
28.16143 612.000
28.20199 650.000
28.24255 635.000
28.28311 682.000
28.32367 797.000
28.36423 873.000
28.40479 1000.000
28.44535 1168.000
28.48591 1333.000
28.52647 1517.000
28.56703 1705.000
28.60759 1675.000
28.64815 1597.000
28.68871 1393.000
28.72927 1283.000
28.76983 1146.000
28.81039 1046.000
28.85095 940.000
28.89151 798.000
28.93207 811.000
28.97263 798.000
29.01319 768.000
29.05375 823.000
29.09431 869.000
29.13487 884.000
29.17543 787.000
29.21599 788.000
29.25655 843.000
29.29711 776.000
29.33767 744.000
29.37823 761.000
29.41879 764.000
29.45935 745.000
29.49991 684.000
29.54047 763.000
29.58103 734.000
29.62159 862.000
29.66216 953.000
29.70272 1029.000
29.74328 1244.000
29.78384 1339.000
29.82440 1307.000
29.86496 1442.000
29.90552 1278.000
29.94608 1196.000
29.98664 1118.000
30.02720 1223.000
30.06776 1181.000
30.10832 1174.000
30.14888 1123.000
30.18944 1022.000
30.23000 969.000
30.27056 892.000
30.31112 857.000
30.35168 856.000
30.39224 831.000
30.43280 788.000
30.47336 786.000
30.51392 707.000
30.55448 643.000
30.59504 571.000
30.63560 567.000
30.67616 541.000
30.71672 629.000
30.75728 548.000
30.79784 622.000
30.83840 617.000
30.87896 639.000
30.91952 706.000
30.96008 711.000
31.00064 680.000
31.04120 751.000
31.08176 715.000
31.12232 803.000
31.16288 776.000
31.20344 786.000
31.24400 796.000
31.28456 838.000
31.32512 862.000
31.36568 910.000
31.40624 857.000
31.44680 856.000
31.48736 864.000
31.52792 963.000
31.56849 1014.000
31.60905 1135.000
31.64961 1213.000
31.69017 1243.000
31.73073 1129.000
31.77129 1032.000
31.81185 988.000
31.85241 964.000
31.89297 820.000
31.93353 891.000
31.97409 911.000
32.01465 932.000
32.05521 867.000
32.09577 941.000
32.13633 806.000
32.17689 710.000
32.21745 694.000
32.25801 569.000
32.29857 684.000
32.33913 631.000
32.37969 653.000
32.42025 674.000
32.46081 673.000
32.50137 618.000
32.54193 582.000
32.58249 554.000
32.62305 558.000
32.66361 581.000
32.70417 620.000
32.74473 571.000
32.78529 575.000
32.82585 584.000
32.86641 577.000
32.90697 615.000
32.94753 606.000
32.98809 685.000
33.02865 642.000
33.06921 711.000
33.10977 751.000
33.15033 769.000
33.19089 768.000
33.23145 692.000
33.27201 705.000
33.31257 744.000
33.35313 727.000
33.39369 719.000
33.43425 698.000
33.47482 685.000
33.51538 629.000
33.55594 628.000
33.59650 657.000
33.63706 711.000
33.67762 711.000
33.71818 705.000
33.75874 714.000
33.79930 613.000
33.83986 589.000
33.88042 554.000
33.92098 570.000
33.96154 568.000
34.00210 558.000
34.04266 582.000
34.08322 600.000
34.12378 547.000
34.16434 588.000
34.20490 645.000
34.24546 582.000
34.28602 601.000
34.32658 581.000
34.36714 630.000
34.40770 616.000
34.44826 610.000
34.48882 737.000
34.52938 688.000
34.56994 758.000
34.61050 853.000
34.65106 811.000
34.69162 808.000
34.73218 780.000
34.77274 760.000
34.81330 806.000
34.85386 757.000
34.89442 844.000
34.93498 867.000
34.97554 965.000
35.01610 950.000
35.05666 940.000
35.09722 908.000
35.13778 836.000
35.17834 804.000
35.21890 786.000
35.25946 823.000
35.30002 772.000
35.34058 782.000
35.38115 705.000
35.42171 696.000
35.46227 604.000
35.50283 566.000
35.54339 622.000
35.58395 615.000
35.62451 552.000
35.66507 538.000
35.70563 510.000
35.74619 514.000
35.78675 527.000
35.82731 540.000
35.86787 531.000
35.90843 601.000
35.94899 632.000
35.98955 622.000
36.03011 665.000
36.07067 659.000
36.11123 747.000
36.15179 810.000
36.19235 860.000
36.23291 859.000
36.27347 906.000
36.31403 870.000
36.35459 831.000
36.39515 800.000
36.43571 729.000
36.47627 713.000
36.51683 689.000
36.55739 641.000
36.59795 643.000
36.63851 716.000
36.67907 682.000
36.71963 738.000
36.76019 687.000
36.80075 703.000
36.84131 703.000
36.88187 625.000
36.92243 638.000
36.96299 634.000
37.00355 600.000
37.04411 598.000
37.08467 631.000
37.12523 598.000
37.16579 649.000
37.20635 666.000
37.24691 686.000
37.28748 667.000
37.32804 678.000
37.36860 628.000
37.40916 544.000
37.44972 528.000
37.49028 533.000
37.53084 531.000
37.57140 514.000
37.61196 531.000
37.65252 509.000
37.69308 521.000
37.73364 583.000
37.77420 584.000
37.81476 564.000
37.85532 602.000
37.89588 645.000
37.93644 681.000
37.97700 701.000
38.01756 736.000
38.05812 661.000
38.09868 683.000
38.13924 621.000
38.17980 608.000
38.22036 581.000
38.26092 673.000
38.30148 657.000
38.34204 619.000
38.38260 742.000
38.42316 715.000
38.46372 680.000
38.50428 665.000
38.54484 666.000
38.58540 615.000
38.62596 645.000
38.66652 577.000
38.70708 549.000
38.74764 630.000
38.78820 575.000
38.82876 612.000
38.86932 592.000
38.90988 610.000
38.95044 665.000
38.99100 628.000
39.03156 732.000
39.07212 690.000
39.11268 662.000
39.15324 645.000
39.19381 579.000
39.23437 576.000
39.27493 570.000
39.31549 630.000
39.35605 579.000
39.39661 595.000
39.43717 610.000
39.47773 630.000
39.51829 649.000
39.55885 632.000
39.59941 644.000
39.63997 670.000
39.68053 686.000
39.72109 662.000
39.76165 597.000
39.80221 625.000
39.84277 601.000
39.88333 645.000
39.92389 610.000
39.96445 623.000
40.00501 635.000
40.04557 623.000
40.08613 666.000
40.12669 692.000
40.16725 679.000
40.20781 739.000
40.24837 766.000
40.28893 756.000
40.32949 782.000
40.37005 802.000
40.41061 828.000
40.45117 898.000
40.49173 911.000
40.53229 838.000
40.57285 838.000
40.61341 835.000
40.65397 779.000
40.69453 682.000
40.73509 641.000
40.77565 631.000
40.81621 526.000
40.85677 571.000
40.89733 538.000
40.93789 562.000
40.97845 564.000
41.01901 564.000
41.05957 584.000
41.10014 563.000
41.14070 570.000
41.18126 583.000
41.22182 589.000
41.26238 595.000
41.30294 590.000
41.34350 645.000
41.38406 615.000
41.42462 559.000
41.46518 584.000
41.50574 574.000
41.54630 536.000
41.58686 557.000
41.62742 563.000
41.66798 577.000
41.70854 574.000
41.74910 635.000
41.78966 622.000
41.83022 632.000
41.87078 565.000
41.91134 606.000
41.95190 562.000
41.99246 469.000
42.03302 490.000
42.07358 449.000
42.11414 478.000
42.15470 483.000
42.19526 520.000
42.23582 511.000
42.27638 517.000
42.31694 520.000
42.35750 529.000
42.39806 539.000
42.43862 512.000
42.47918 520.000
42.51974 531.000
42.56030 527.000
42.60086 567.000
42.64142 541.000
42.68198 534.000
42.72254 546.000
42.76310 507.000
42.80366 514.000
42.84422 547.000
42.88478 509.000
42.92534 509.000
42.96590 508.000
43.00647 482.000
43.04703 548.000
43.08759 534.000
43.12815 558.000
43.16871 592.000
43.20927 590.000
43.24983 601.000
43.29039 643.000
43.33095 628.000
43.37151 576.000
43.41207 588.000
43.45263 598.000
43.49319 570.000
43.53375 610.000
43.57431 576.000
43.61487 592.000
43.65543 617.000
43.69599 670.000
43.73655 667.000
43.77711 652.000
43.81767 627.000
43.85823 628.000
43.89879 621.000
43.93935 643.000
43.97991 622.000
44.02047 614.000
44.06103 631.000
44.10159 586.000
44.14215 627.000
44.18271 597.000
44.22327 561.000
44.26383 580.000
44.30439 625.000
44.34495 637.000
44.38551 675.000
44.42607 653.000
44.46663 657.000
44.50719 652.000
44.54775 616.000
44.58831 609.000
44.62887 594.000
44.66943 643.000
44.70999 625.000
44.75055 638.000
44.79111 581.000
44.83167 579.000
44.87223 617.000
44.91280 581.000
44.95336 578.000
44.99392 556.000
45.03448 572.000
45.07504 607.000
45.11560 579.000
45.15616 554.000
45.19672 574.000
45.23728 535.000
45.27784 549.000
45.31840 546.000
45.35896 552.000
45.39952 503.000
45.44008 508.000
45.48064 525.000
45.52120 536.000
45.56176 611.000
45.60232 607.000
45.64288 549.000
45.68344 591.000
45.72400 581.000
45.76456 507.000
45.80512 575.000
45.84568 537.000
45.88624 501.000
45.92680 489.000
45.96736 519.000
46.00792 505.000
46.04848 491.000
46.08904 548.000
46.12960 570.000
46.17016 557.000
46.21072 573.000
46.25128 546.000
46.29184 586.000
46.33240 609.000
46.37296 601.000
46.41352 602.000
46.45408 623.000
46.49464 608.000
46.53520 608.000
46.57576 646.000
46.61632 605.000
46.65688 632.000
46.69744 619.000
46.73800 541.000
46.77856 567.000
46.81913 517.000
46.85969 522.000
46.90025 498.000
46.94081 532.000
46.98137 532.000
47.02193 516.000
47.06249 508.000
47.10305 560.000
47.14361 511.000
47.18417 521.000
47.22473 509.000
47.26529 555.000
47.30585 560.000
47.34641 534.000
47.38697 553.000
47.42753 592.000
47.46809 569.000
47.50865 589.000
47.54921 567.000
47.58977 551.000
47.63033 541.000
47.67089 548.000
47.71145 522.000
47.75201 482.000
47.79257 523.000
47.83313 551.000
47.87369 541.000
47.91425 549.000
47.95481 553.000
47.99537 546.000
48.03593 548.000
48.07649 553.000
48.11705 550.000
48.15761 514.000
48.19817 545.000
48.23873 508.000
48.27929 526.000
48.31985 513.000
48.36041 486.000
48.40097 494.000
48.44153 505.000
48.48209 509.000
48.52265 466.000
48.56321 474.000
48.60377 498.000
48.64433 482.000
48.68489 498.000
48.72546 462.000
48.76602 445.000
48.80658 476.000
48.84714 487.000
48.88770 504.000
48.92826 466.000
48.96882 467.000
49.00938 478.000
49.04994 472.000
49.09050 526.000
49.13106 460.000
49.17162 466.000
49.21218 505.000
49.25274 461.000
49.29330 462.000
49.33386 443.000
49.37442 493.000
49.41498 474.000
49.45554 490.000
49.49610 477.000
49.53666 413.000
49.57722 444.000
49.61778 446.000
49.65834 456.000
49.69890 480.000
49.73946 452.000
49.78002 488.000
49.82058 485.000
49.86114 464.000
49.90170 500.000
49.94226 453.000
49.98282 477.000
50.00310 449.000