File: Task01/nick/files/ESI_material_XRD/steady_state/crystal_size_analysis/Volumes_MeCN/1925_RVR_20ul_mill_MeCN.xy
5.00155 928.000
5.04211 842.000
5.08267 825.000
5.12323 827.000
5.16379 793.000
5.20435 733.000
5.24491 696.000
5.28547 765.000
5.32603 716.000
5.36659 724.000
5.40715 722.000
5.44771 694.000
5.48827 671.000
5.52883 629.000
5.56939 661.000
5.60995 595.000
5.65051 611.000
5.69107 631.000
5.73163 600.000
5.77219 606.000
5.81275 583.000
5.85331 551.000
5.89387 517.000
5.93443 576.000
5.97499 528.000
6.01555 567.000
6.05611 523.000
6.09667 598.000
6.13723 540.000
6.17779 532.000
6.21835 550.000
6.25891 562.000
6.29947 522.000
6.34003 519.000
6.38059 506.000
6.42115 574.000
6.46171 637.000
6.50227 651.000
6.54283 815.000
6.58339 1049.000
6.62395 1429.000
6.66451 2089.000
6.70507 3171.000
6.74564 4597.000
6.78620 5258.000
6.82676 4923.000
6.86732 3349.000
6.90788 1722.000
6.94844 987.000
6.98900 680.000
7.02956 617.000
7.07012 540.000
7.11068 518.000
7.15124 476.000
7.19180 483.000
7.23236 450.000
7.27292 456.000
7.31348 421.000
7.35404 399.000
7.39460 436.000
7.43516 409.000
7.47572 376.000
7.51628 435.000
7.55684 416.000
7.59740 403.000
7.63796 409.000
7.67852 377.000
7.71908 382.000
7.75964 431.000
7.80020 421.000
7.84076 399.000
7.88132 433.000
7.92188 449.000
7.96244 456.000
8.00300 448.000
8.04356 549.000
8.08412 659.000
8.12468 789.000
8.16524 1059.000
8.20580 1434.000
8.24636 2116.000
8.28692 3424.000
8.32748 5159.000
8.36804 5341.000
8.40860 3768.000
8.44916 1910.000
8.48972 1036.000
8.53028 769.000
8.57084 626.000
8.61140 594.000
8.65197 541.000
8.69253 525.000
8.73309 451.000
8.77365 470.000
8.81421 434.000
8.85477 402.000
8.89533 438.000
8.93589 398.000
8.97645 372.000
9.01701 413.000
9.05757 387.000
9.09813 378.000
9.13869 361.000
9.17925 358.000
9.21981 398.000
9.26037 336.000
9.30093 311.000
9.34149 380.000
9.38205 360.000
9.42261 349.000
9.46317 351.000
9.50373 383.000
9.54429 369.000
9.58485 345.000
9.62541 382.000
9.66597 378.000
9.70653 361.000
9.74709 373.000
9.78765 380.000
9.82821 393.000
9.86877 432.000
9.90933 371.000
9.94989 367.000
9.99045 328.000
10.03101 366.000
10.07157 356.000
10.11213 352.000
10.15269 363.000
10.19325 340.000
10.23381 373.000
10.27437 395.000
10.31493 360.000
10.35549 395.000
10.39605 473.000
10.43661 534.000
10.47717 807.000
10.51773 1001.000
10.55830 1026.000
10.59886 787.000
10.63942 561.000
10.67998 422.000
10.72054 417.000
10.76110 387.000
10.80166 373.000
10.84222 365.000
10.88278 358.000
10.92334 356.000
10.96390 368.000
11.00446 331.000
11.04502 297.000
11.08558 332.000
11.12614 331.000
11.16670 366.000
11.20726 355.000
11.24782 331.000
11.28838 320.000
11.32894 323.000
11.36950 330.000
11.41006 301.000
11.45062 318.000
11.49118 319.000
11.53174 345.000
11.57230 330.000
11.61286 296.000
11.65342 328.000
11.69398 344.000
11.73454 336.000
11.77510 316.000
11.81566 314.000
11.85622 340.000
11.89678 324.000
11.93734 332.000
11.97790 273.000
12.01846 314.000
12.05902 305.000
12.09958 309.000
12.14014 303.000
12.18070 327.000
12.22126 312.000
12.26182 327.000
12.30238 337.000
12.34294 345.000
12.38350 310.000
12.42406 303.000
12.46463 302.000
12.50519 293.000
12.54575 307.000
12.58631 282.000
12.62687 342.000
12.66743 309.000
12.70799 342.000
12.74855 353.000
12.78911 331.000
12.82967 349.000
12.87023 331.000
12.91079 391.000
12.95135 359.000
12.99191 384.000
13.03247 399.000
13.07303 529.000
13.11359 619.000
13.15415 708.000
13.19471 756.000
13.23527 656.000
13.27583 732.000
13.31639 863.000
13.35695 893.000
13.39751 905.000
13.43807 903.000
13.47863 1199.000
13.51919 1415.000
13.55975 1329.000
13.60031 1106.000
13.64087 864.000
13.68143 658.000
13.72199 588.000
13.76255 430.000
13.80311 450.000
13.84367 430.000
13.88423 367.000
13.92479 394.000
13.96535 354.000
14.00591 378.000
14.04647 381.000
14.08703 360.000
14.12759 376.000
14.16815 336.000
14.20871 415.000
14.24927 395.000
14.28983 420.000
14.33039 458.000
14.37096 436.000
14.41152 438.000
14.45208 527.000
14.49264 637.000
14.53320 805.000
14.57376 1233.000
14.61432 1690.000
14.65488 2041.000
14.69544 1770.000
14.73600 1139.000
14.77656 888.000
14.81712 928.000
14.85768 1135.000
14.89824 1227.000
14.93880 1132.000
14.97936 805.000
15.01992 610.000
15.06048 500.000
15.10104 430.000
15.14160 403.000
15.18216 378.000
15.22272 417.000
15.26328 405.000
15.30384 371.000
15.34440 394.000
15.38496 391.000
15.42552 414.000
15.46608 418.000
15.50664 493.000
15.54720 388.000
15.58776 376.000
15.62832 397.000
15.66888 429.000
15.70944 435.000
15.75000 385.000
15.79056 438.000
15.83112 446.000
15.87168 450.000
15.91224 442.000
15.95280 470.000
15.99336 509.000
16.03392 581.000
16.07448 595.000
16.11504 641.000
16.15560 770.000
16.19616 962.000
16.23672 1344.000
16.27729 1923.000
16.31785 2549.000
16.35841 2891.000
16.39897 2640.000
16.43953 2080.000
16.48009 1625.000
16.52065 1419.000
16.56121 1537.000
16.60177 1694.000
16.64233 1741.000
16.68289 1841.000
16.72345 2142.000
16.76401 2474.000
16.80457 2404.000
16.84513 1870.000
16.88569 1409.000
16.92625 1517.000
16.96681 1862.000
17.00737 2627.000
17.04793 3441.000
17.08849 4056.000
17.12905 3884.000
17.16961 2940.000
17.21017 1965.000
17.25073 1330.000
17.29129 950.000
17.33185 885.000
17.37241 748.000
17.41297 739.000
17.45353 679.000
17.49409 652.000
17.53465 695.000
17.57521 645.000
17.61577 652.000
17.65633 742.000
17.69689 789.000
17.73745 854.000
17.77801 979.000
17.81857 999.000
17.85913 1322.000
17.89969 1663.000
17.94025 2471.000
17.98081 3375.000
18.02137 4674.000
18.06193 5762.000
18.10249 6073.000
18.14305 5088.000
18.18362 3549.000
18.22418 2354.000
18.26474 1704.000
18.30530 1311.000
18.34586 1130.000
18.38642 1041.000
18.42698 1072.000
18.46754 1106.000
18.50810 1368.000
18.54866 1665.000
18.58922 2110.000
18.62978 2699.000
18.67034 3038.000
18.71090 2896.000
18.75146 2550.000
18.79202 2021.000
18.83258 1558.000
18.87314 1421.000
18.91370 1279.000
18.95426 1373.000
18.99482 1429.000
19.03538 1481.000
19.07594 1315.000
19.11650 1033.000
19.15706 904.000
19.19762 953.000
19.23818 936.000
19.27874 1079.000
19.31930 1373.000
19.35986 1702.000
19.40042 2267.000
19.44098 2899.000
19.48154 3457.000
19.52210 3363.000
19.56266 2836.000
19.60322 2096.000
19.64378 1722.000
19.68434 1641.000
19.72490 1687.000
19.76546 1936.000
19.80602 2478.000
19.84658 2971.000
19.88714 3622.000
19.92770 3527.000
19.96826 2992.000
20.00882 2422.000
20.04938 2169.000
20.08995 2143.000
20.13051 2352.000
20.17107 2600.000
20.21163 2654.000
20.25219 3057.000
20.29275 3520.000
20.33331 3856.000
20.37387 3177.000
20.41443 2260.000
20.45499 1420.000
20.49555 1214.000
20.53611 1098.000
20.57667 1005.000
20.61723 906.000
20.65779 810.000
20.69835 822.000
20.73891 844.000
20.77947 761.000
20.82003 844.000
20.86059 870.000
20.90115 945.000
20.94171 907.000
20.98227 966.000
21.02283 1070.000
21.06339 1288.000
21.10395 1403.000
21.14451 1717.000
21.18507 2158.000
21.22563 2567.000
21.26619 3362.000
21.30675 4538.000
21.34731 5781.000
21.38787 6705.000
21.42843 7668.000
21.46899 8585.000
21.50955 8932.000
21.55011 8923.000
21.59067 8647.000
21.63123 7423.000
21.67179 6071.000
21.71235 4573.000
21.75291 3131.000
21.79347 2120.000
21.83403 1581.000
21.87459 1227.000
21.91515 1035.000
21.95571 949.000
21.99628 908.000
22.03684 830.000
22.07740 822.000
22.11796 790.000
22.15852 842.000
22.19908 848.000
22.23964 862.000
22.28020 960.000
22.32076 934.000
22.36132 1068.000
22.40188 1169.000
22.44244 1313.000
22.48300 1357.000
22.52356 1245.000
22.56412 1197.000
22.60468 1115.000
22.64524 969.000
22.68580 955.000
22.72636 1017.000
22.76692 1080.000
22.80748 1207.000
22.84804 1352.000
22.88860 1324.000
22.92916 1348.000
22.96972 1276.000
23.01028 1178.000
23.05084 1003.000
23.09140 921.000
23.13196 919.000
23.17252 856.000
23.21308 957.000
23.25364 1122.000
23.29420 1264.000
23.33476 1541.000
23.37532 1786.000
23.41588 2351.000
23.45644 2622.000
23.49700 2897.000
23.53756 2804.000
23.57812 2600.000
23.61868 2214.000
23.65924 1851.000
23.69980 1579.000
23.74036 1466.000
23.78092 1322.000
23.82148 1265.000
23.86204 1173.000
23.90261 995.000
23.94317 876.000
23.98373 804.000
24.02429 815.000
24.06485 771.000
24.10541 800.000
24.14597 839.000
24.18653 1029.000
24.22709 1204.000
24.26765 1462.000
24.30821 1723.000
24.34877 1992.000
24.38933 1996.000
24.42989 1682.000
24.47045 1314.000
24.51101 1115.000
24.55157 930.000
24.59213 984.000
24.63269 994.000
24.67325 1070.000
24.71381 1094.000
24.75437 1132.000
24.79493 950.000
24.83549 865.000
24.87605 764.000
24.91661 868.000
24.95717 848.000
24.99773 915.000
25.03829 1092.000
25.07885 1253.000
25.11941 1426.000
25.15997 1540.000
25.20053 1626.000
25.24109 1518.000
25.28165 1455.000
25.32221 1270.000
25.36277 1220.000
25.40333 1308.000
25.44389 1275.000
25.48445 1137.000
25.52501 1089.000
25.56557 886.000
25.60613 793.000
25.64669 760.000
25.68725 685.000
25.72781 751.000
25.76837 784.000
25.80893 875.000
25.84950 947.000
25.89006 1153.000
25.93062 1214.000
25.97118 1455.000
26.01174 1564.000
26.05230 1549.000
26.09286 1488.000
26.13342 1393.000
26.17398 1244.000
26.21454 1060.000
26.25510 981.000
26.29566 1073.000
26.33622 1010.000
26.37678 1146.000
26.41734 1210.000
26.45790 1330.000
26.49846 1446.000
26.53902 1398.000
26.57958 1383.000
26.62014 1328.000
26.66070 1357.000
26.70126 1221.000
26.74182 1221.000
26.78238 1163.000
26.82294 1260.000
26.86350 1425.000
26.90406 1546.000
26.94462 1547.000
26.98518 1482.000
27.02574 1354.000
27.06630 1322.000
27.10686 1224.000
27.14742 1192.000
27.18798 1107.000
27.22854 1095.000
27.26910 1140.000
27.30966 1032.000
27.35022 1104.000
27.39078 1177.000
27.43134 1204.000
27.47190 1210.000
27.51246 1078.000
27.55302 971.000
27.59358 835.000
27.63414 691.000
27.67470 652.000
27.71526 568.000
27.75583 540.000
27.79639 570.000
27.83695 558.000
27.87751 589.000
27.91807 488.000
27.95863 527.000
27.99919 490.000
28.03975 534.000
28.08031 587.000
28.12087 604.000
28.16143 589.000
28.20199 621.000
28.24255 715.000
28.28311 775.000
28.32367 801.000
28.36423 903.000
28.40479 948.000
28.44535 1062.000
28.48591 1060.000
28.52647 1068.000
28.56703 1110.000
28.60759 926.000
28.64815 846.000
28.68871 809.000
28.72927 765.000
28.76983 737.000
28.81039 756.000
28.85095 809.000
28.89151 799.000
28.93207 828.000
28.97263 927.000
29.01319 987.000
29.05375 966.000
29.09431 1011.000
29.13487 935.000
29.17543 893.000
29.21599 846.000
29.25655 896.000
29.29711 905.000
29.33767 880.000
29.37823 948.000
29.41879 860.000
29.45935 823.000
29.49991 805.000
29.54047 801.000
29.58103 865.000
29.62159 856.000
29.66216 872.000
29.70272 920.000
29.74328 963.000
29.78384 1023.000
29.82440 953.000
29.86496 975.000
29.90552 995.000
29.94608 915.000
29.98664 968.000
30.02720 921.000
30.06776 783.000
30.10832 785.000
30.14888 740.000
30.18944 640.000
30.23000 624.000
30.27056 751.000
30.31112 748.000
30.35168 837.000
30.39224 826.000
30.43280 766.000
30.47336 705.000
30.51392 633.000
30.55448 589.000
30.59504 545.000
30.63560 567.000
30.67616 471.000
30.71672 448.000
30.75728 478.000
30.79784 457.000
30.83840 472.000
30.87896 523.000
30.91952 551.000
30.96008 597.000
31.00064 634.000
31.04120 674.000
31.08176 709.000
31.12232 702.000
31.16288 695.000
31.20344 727.000
31.24400 645.000
31.28456 573.000
31.32512 511.000
31.36568 515.000
31.40624 487.000
31.44680 484.000
31.48736 481.000
31.52792 506.000
31.56849 539.000
31.60905 581.000
31.64961 582.000
31.69017 628.000
31.73073 601.000
31.77129 636.000
31.81185 668.000
31.85241 698.000
31.89297 665.000
31.93353 653.000
31.97409 642.000
32.01465 650.000
32.05521 681.000
32.09577 596.000
32.13633 612.000
32.17689 549.000
32.21745 620.000
32.25801 535.000
32.29857 523.000
32.33913 543.000
32.37969 515.000
32.42025 512.000
32.46081 457.000
32.50137 483.000
32.54193 475.000
32.58249 464.000
32.62305 521.000
32.66361 493.000
32.70417 502.000
32.74473 489.000
32.78529 513.000
32.82585 493.000
32.86641 566.000
32.90697 601.000
32.94753 640.000
32.98809 621.000
33.02865 651.000
33.06921 629.000
33.10977 587.000
33.15033 611.000
33.19089 686.000
33.23145 712.000
33.27201 689.000
33.31257 668.000
33.35313 681.000
33.39369 674.000
33.43425 649.000
33.47482 601.000
33.51538 584.000
33.55594 560.000
33.59650 505.000
33.63706 501.000
33.67762 490.000
33.71818 513.000
33.75874 440.000
33.79930 483.000
33.83986 511.000
33.88042 546.000
33.92098 550.000
33.96154 541.000
34.00210 584.000
34.04266 632.000
34.08322 604.000
34.12378 604.000
34.16434 639.000
34.20490 594.000
34.24546 706.000
34.28602 692.000
34.32658 700.000
34.36714 773.000
34.40770 882.000
34.44826 945.000
34.48882 1048.000
34.52938 1150.000
34.56994 1102.000
34.61050 1084.000
34.65106 1010.000
34.69162 891.000
34.73218 877.000
34.77274 821.000
34.81330 846.000
34.85386 806.000
34.89442 815.000
34.93498 858.000
34.97554 892.000
35.01610 771.000
35.05666 760.000
35.09722 699.000
35.13778 679.000
35.17834 664.000
35.21890 587.000
35.25946 570.000
35.30002 540.000
35.34058 610.000
35.38115 598.000
35.42171 625.000
35.46227 571.000
35.50283 567.000
35.54339 567.000
35.58395 610.000
35.62451 510.000
35.66507 525.000
35.70563 461.000
35.74619 473.000
35.78675 505.000
35.82731 457.000
35.86787 453.000
35.90843 480.000
35.94899 430.000
35.98955 481.000
36.03011 452.000
36.07067 521.000
36.11123 498.000
36.15179 577.000
36.19235 533.000
36.23291 586.000
36.27347 583.000
36.31403 595.000
36.35459 539.000
36.39515 583.000
36.43571 598.000
36.47627 675.000
36.51683 688.000
36.55739 734.000
36.59795 738.000
36.63851 793.000
36.67907 843.000
36.71963 757.000
36.76019 804.000
36.80075 834.000
36.84131 763.000
36.88187 739.000
36.92243 709.000
36.96299 701.000
37.00355 598.000
37.04411 636.000
37.08467 631.000
37.12523 667.000
37.16579 603.000
37.20635 591.000
37.24691 578.000
37.28748 540.000
37.32804 573.000
37.36860 538.000
37.40916 564.000
37.44972 521.000
37.49028 539.000
37.53084 568.000
37.57140 533.000
37.61196 528.000
37.65252 562.000
37.69308 591.000
37.73364 602.000
37.77420 587.000
37.81476 689.000
37.85532 619.000
37.89588 690.000
37.93644 659.000
37.97700 699.000
38.01756 671.000
38.05812 606.000
38.09868 625.000
38.13924 612.000
38.17980 549.000
38.22036 567.000
38.26092 564.000
38.30148 520.000
38.34204 557.000
38.38260 594.000
38.42316 540.000
38.46372 526.000
38.50428 531.000
38.54484 533.000
38.58540 508.000
38.62596 497.000
38.66652 443.000
38.70708 470.000
38.74764 467.000
38.78820 458.000
38.82876 428.000
38.86932 430.000
38.90988 478.000
38.95044 470.000
38.99100 495.000
39.03156 477.000
39.07212 468.000
39.11268 503.000
39.15324 510.000
39.19381 494.000
39.23437 532.000
39.27493 529.000
39.31549 549.000
39.35605 534.000
39.39661 540.000
39.43717 652.000
39.47773 574.000
39.51829 624.000
39.55885 595.000
39.59941 635.000
39.63997 630.000
39.68053 642.000
39.72109 585.000
39.76165 590.000
39.80221 621.000
39.84277 550.000
39.88333 577.000
39.92389 593.000
39.96445 651.000
40.00501 610.000
40.04557 649.000
40.08613 692.000
40.12669 728.000
40.16725 705.000
40.20781 739.000
40.24837 698.000
40.28893 750.000
40.32949 694.000
40.37005 795.000
40.41061 679.000
40.45117 655.000
40.49173 592.000
40.53229 604.000
40.57285 526.000
40.61341 541.000
40.65397 557.000
40.69453 485.000
40.73509 464.000
40.77565 525.000
40.81621 502.000
40.85677 516.000
40.89733 540.000
40.93789 524.000
40.97845 526.000
41.01901 494.000
41.05957 528.000
41.10014 498.000
41.14070 579.000
41.18126 553.000
41.22182 587.000
41.26238 566.000
41.30294 569.000
41.34350 623.000
41.38406 655.000
41.42462 621.000
41.46518 653.000
41.50574 724.000
41.54630 670.000
41.58686 647.000
41.62742 707.000
41.66798 697.000
41.70854 695.000
41.74910 656.000
41.78966 701.000
41.83022 630.000
41.87078 600.000
41.91134 586.000
41.95190 527.000
41.99246 539.000
42.03302 536.000
42.07358 493.000
42.11414 474.000
42.15470 440.000
42.19526 478.000
42.23582 465.000
42.27638 433.000
42.31694 499.000
42.35750 432.000
42.39806 452.000
42.43862 418.000
42.47918 407.000
42.51974 413.000
42.56030 413.000
42.60086 450.000
42.64142 423.000
42.68198 446.000
42.72254 409.000
42.76310 412.000
42.80366 475.000
42.84422 451.000
42.88478 475.000
42.92534 464.000
42.96590 451.000
43.00647 465.000
43.04703 496.000
43.08759 540.000
43.12815 505.000
43.16871 562.000
43.20927 531.000
43.24983 574.000
43.29039 645.000
43.33095 571.000
43.37151 595.000
43.41207 573.000
43.45263 605.000
43.49319 611.000
43.53375 621.000
43.57431 642.000
43.61487 589.000
43.65543 591.000
43.69599 645.000
43.73655 624.000
43.77711 573.000
43.81767 622.000
43.85823 687.000
43.89879 651.000
43.93935 654.000
43.97991 644.000
44.02047 632.000
44.06103 622.000
44.10159 587.000
44.14215 613.000
44.18271 565.000
44.22327 571.000
44.26383 536.000
44.30439 502.000
44.34495 505.000
44.38551 531.000
44.42607 511.000
44.46663 489.000
44.50719 502.000
44.54775 537.000
44.58831 482.000
44.62887 487.000
44.66943 519.000
44.70999 477.000
44.75055 541.000
44.79111 488.000
44.83167 506.000
44.87223 560.000
44.91280 508.000
44.95336 525.000
44.99392 511.000
45.03448 522.000
45.07504 507.000
45.11560 466.000
45.15616 481.000
45.19672 465.000
45.23728 485.000
45.27784 486.000
45.31840 476.000
45.35896 482.000
45.39952 483.000
45.44008 484.000
45.48064 498.000
45.52120 515.000
45.56176 491.000
45.60232 503.000
45.64288 497.000
45.68344 531.000
45.72400 510.000
45.76456 469.000
45.80512 556.000
45.84568 497.000
45.88624 493.000
45.92680 501.000
45.96736 493.000
46.00792 487.000
46.04848 494.000
46.08904 476.000
46.12960 499.000
46.17016 516.000
46.21072 500.000
46.25128 489.000
46.29184 517.000
46.33240 509.000
46.37296 522.000
46.41352 553.000
46.45408 560.000
46.49464 492.000
46.53520 500.000
46.57576 544.000
46.61632 534.000
46.65688 533.000
46.69744 539.000
46.73800 507.000
46.77856 508.000
46.81913 504.000
46.85969 518.000
46.90025 466.000
46.94081 476.000
46.98137 450.000
47.02193 488.000
47.06249 484.000
47.10305 513.000
47.14361 511.000
47.18417 512.000
47.22473 582.000
47.26529 545.000
47.30585 566.000
47.34641 600.000
47.38697 555.000
47.42753 576.000
47.46809 570.000
47.50865 533.000
47.54921 529.000
47.58977 525.000
47.63033 593.000
47.67089 515.000
47.71145 527.000
47.75201 475.000
47.79257 521.000
47.83313 516.000
47.87369 481.000
47.91425 448.000
47.95481 484.000
47.99537 484.000
48.03593 451.000
48.07649 478.000
48.11705 478.000
48.15761 427.000
48.19817 433.000
48.23873 432.000
48.27929 459.000
48.31985 459.000
48.36041 436.000
48.40097 426.000
48.44153 461.000
48.48209 430.000
48.52265 446.000
48.56321 421.000
48.60377 409.000
48.64433 471.000
48.68489 399.000
48.72546 412.000
48.76602 399.000
48.80658 427.000
48.84714 404.000
48.88770 361.000
48.92826 434.000
48.96882 407.000
49.00938 418.000
49.04994 417.000
49.09050 420.000
49.13106 415.000
49.17162 415.000
49.21218 439.000
49.25274 433.000
49.29330 453.000
49.33386 391.000
49.37442 435.000
49.41498 458.000
49.45554 433.000
49.49610 439.000
49.53666 443.000
49.57722 417.000
49.61778 458.000
49.65834 434.000
49.69890 442.000
49.73946 430.000
49.78002 439.000
49.82058 415.000
49.86114 443.000
49.90170 430.000
49.94226 492.000
49.98282 438.000
50.00310 480.000