File: Task01/nick/files/ESI_material_XRD/steady_state/crystal_size_analysis/Volumes_MeCN/1926_RVR_10ul_mill_MeCN.xy
5.00155 857.000
5.04211 798.000
5.08267 855.000
5.12323 806.000
5.16379 824.000
5.20435 781.000
5.24491 727.000
5.28547 722.000
5.32603 684.000
5.36659 786.000
5.40715 717.000
5.44771 713.000
5.48827 592.000
5.52883 632.000
5.56939 652.000
5.60995 568.000
5.65051 642.000
5.69107 632.000
5.73163 570.000
5.77219 596.000
5.81275 546.000
5.85331 581.000
5.89387 576.000
5.93443 547.000
5.97499 528.000
6.01555 491.000
6.05611 524.000
6.09667 532.000
6.13723 506.000
6.17779 542.000
6.21835 464.000
6.25891 488.000
6.29947 563.000
6.34003 520.000
6.38059 560.000
6.42115 577.000
6.46171 630.000
6.50227 705.000
6.54283 815.000
6.58339 996.000
6.62395 1413.000
6.66451 2089.000
6.70507 3264.000
6.74564 4309.000
6.78620 4992.000
6.82676 4527.000
6.86732 2876.000
6.90788 1393.000
6.94844 896.000
6.98900 643.000
7.02956 596.000
7.07012 509.000
7.11068 495.000
7.15124 504.000
7.19180 429.000
7.23236 442.000
7.27292 419.000
7.31348 434.000
7.35404 445.000
7.39460 425.000
7.43516 460.000
7.47572 360.000
7.51628 406.000
7.55684 403.000
7.59740 435.000
7.63796 418.000
7.67852 377.000
7.71908 428.000
7.75964 421.000
7.80020 419.000
7.84076 437.000
7.88132 395.000
7.92188 436.000
7.96244 474.000
8.00300 535.000
8.04356 552.000
8.08412 672.000
8.12468 890.000
8.16524 1151.000
8.20580 1570.000
8.24636 2356.000
8.28692 3358.000
8.32748 4801.000
8.36804 4896.000
8.40860 3252.000
8.44916 1747.000
8.48972 1032.000
8.53028 750.000
8.57084 607.000
8.61140 542.000
8.65197 543.000
8.69253 449.000
8.73309 427.000
8.77365 403.000
8.81421 425.000
8.85477 409.000
8.89533 415.000
8.93589 409.000
8.97645 421.000
9.01701 405.000
9.05757 390.000
9.09813 382.000
9.13869 379.000
9.17925 409.000
9.21981 377.000
9.26037 393.000
9.30093 346.000
9.34149 380.000
9.38205 388.000
9.42261 352.000
9.46317 350.000
9.50373 329.000
9.54429 353.000
9.58485 350.000
9.62541 369.000
9.66597 339.000
9.70653 320.000
9.74709 399.000
9.78765 328.000
9.82821 345.000
9.86877 386.000
9.90933 347.000
9.94989 361.000
9.99045 355.000
10.03101 351.000
10.07157 336.000
10.11213 330.000
10.15269 348.000
10.19325 363.000
10.23381 345.000
10.27437 348.000
10.31493 395.000
10.35549 400.000
10.39605 455.000
10.43661 563.000
10.47717 781.000
10.51773 934.000
10.55830 993.000
10.59886 728.000
10.63942 479.000
10.67998 456.000
10.72054 411.000
10.76110 360.000
10.80166 397.000
10.84222 340.000
10.88278 299.000
10.92334 308.000
10.96390 296.000
11.00446 323.000
11.04502 318.000
11.08558 299.000
11.12614 308.000
11.16670 324.000
11.20726 317.000
11.24782 316.000
11.28838 291.000
11.32894 318.000
11.36950 303.000
11.41006 302.000
11.45062 278.000
11.49118 309.000
11.53174 284.000
11.57230 267.000
11.61286 320.000
11.65342 270.000
11.69398 322.000
11.73454 335.000
11.77510 281.000
11.81566 335.000
11.85622 294.000
11.89678 313.000
11.93734 314.000
11.97790 312.000
12.01846 320.000
12.05902 314.000
12.09958 320.000
12.14014 313.000
12.18070 343.000
12.22126 309.000
12.26182 331.000
12.30238 303.000
12.34294 331.000
12.38350 312.000
12.42406 325.000
12.46463 312.000
12.50519 322.000
12.54575 314.000
12.58631 302.000
12.62687 322.000
12.66743 333.000
12.70799 309.000
12.74855 305.000
12.78911 342.000
12.82967 305.000
12.87023 317.000
12.91079 328.000
12.95135 349.000
12.99191 379.000
13.03247 444.000
13.07303 519.000
13.11359 595.000
13.15415 702.000
13.19471 739.000
13.23527 715.000
13.27583 773.000
13.31639 840.000
13.35695 808.000
13.39751 799.000
13.43807 942.000
13.47863 1165.000
13.51919 1350.000
13.55975 1262.000
13.60031 993.000
13.64087 848.000
13.68143 651.000
13.72199 506.000
13.76255 431.000
13.80311 407.000
13.84367 381.000
13.88423 372.000
13.92479 373.000
13.96535 384.000
14.00591 361.000
14.04647 337.000
14.08703 388.000
14.12759 378.000
14.16815 369.000
14.20871 365.000
14.24927 390.000
14.28983 402.000
14.33039 405.000
14.37096 426.000
14.41152 470.000
14.45208 524.000
14.49264 659.000
14.53320 793.000
14.57376 1166.000
14.61432 1649.000
14.65488 1919.000
14.69544 1793.000
14.73600 1209.000
14.77656 889.000
14.81712 952.000
14.85768 1127.000
14.89824 1218.000
14.93880 1080.000
14.97936 783.000
15.01992 534.000
15.06048 463.000
15.10104 466.000
15.14160 416.000
15.18216 431.000
15.22272 385.000
15.26328 370.000
15.30384 410.000
15.34440 396.000
15.38496 419.000
15.42552 389.000
15.46608 365.000
15.50664 386.000
15.54720 382.000
15.58776 398.000
15.62832 383.000
15.66888 417.000
15.70944 383.000
15.75000 397.000
15.79056 418.000
15.83112 467.000
15.87168 440.000
15.91224 453.000
15.95280 499.000
15.99336 472.000
16.03392 478.000
16.07448 507.000
16.11504 661.000
16.15560 766.000
16.19616 921.000
16.23672 1324.000
16.27729 1903.000
16.31785 2405.000
16.35841 2860.000
16.39897 2473.000
16.43953 2028.000
16.48009 1513.000
16.52065 1418.000
16.56121 1528.000
16.60177 1667.000
16.64233 1790.000
16.68289 1884.000
16.72345 2146.000
16.76401 2400.000
16.80457 2344.000
16.84513 1722.000
16.88569 1471.000
16.92625 1496.000
16.96681 1896.000
17.00737 2659.000
17.04793 3591.000
17.08849 4128.000
17.12905 3846.000
17.16961 2926.000
17.21017 1884.000
17.25073 1198.000
17.29129 894.000
17.33185 794.000
17.37241 699.000
17.41297 666.000
17.45353 628.000
17.49409 653.000
17.53465 623.000
17.57521 656.000
17.61577 666.000
17.65633 663.000
17.69689 719.000
17.73745 765.000
17.77801 872.000
17.81857 942.000
17.85913 1272.000
17.89969 1647.000
17.94025 2363.000
17.98081 3295.000
18.02137 4584.000
18.06193 5809.000
18.10249 5999.000
18.14305 4917.000
18.18362 3422.000
18.22418 2106.000
18.26474 1554.000
18.30530 1165.000
18.34586 1032.000
18.38642 995.000
18.42698 1013.000
18.46754 1111.000
18.50810 1248.000
18.54866 1630.000
18.58922 2099.000
18.62978 2597.000
18.67034 3003.000
18.71090 2981.000
18.75146 2540.000
18.79202 1874.000
18.83258 1555.000
18.87314 1256.000
18.91370 1227.000
18.95426 1386.000
18.99482 1464.000
19.03538 1491.000
19.07594 1200.000
19.11650 1040.000
19.15706 829.000
19.19762 877.000
19.23818 951.000
19.27874 1080.000
19.31930 1270.000
19.35986 1660.000
19.40042 2128.000
19.44098 2874.000
19.48154 3421.000
19.52210 3383.000
19.56266 2739.000
19.60322 2082.000
19.64378 1732.000
19.68434 1618.000
19.72490 1719.000
19.76546 1933.000
19.80602 2443.000
19.84658 3024.000
19.88714 3581.000
19.92770 3438.000
19.96826 3001.000
20.00882 2386.000
20.04938 2040.000
20.08995 2154.000
20.13051 2361.000
20.17107 2524.000
20.21163 2678.000
20.25219 2913.000
20.29275 3393.000
20.33331 3756.000
20.37387 3224.000
20.41443 2096.000
20.45499 1468.000
20.49555 1145.000
20.53611 1052.000
20.57667 956.000
20.61723 947.000
20.65779 814.000
20.69835 752.000
20.73891 823.000
20.77947 783.000
20.82003 819.000
20.86059 869.000
20.90115 875.000
20.94171 903.000
20.98227 1012.000
21.02283 1108.000
21.06339 1232.000
21.10395 1481.000
21.14451 1725.000
21.18507 2108.000
21.22563 2572.000
21.26619 3326.000
21.30675 4378.000
21.34731 5691.000
21.38787 6850.000
21.42843 7744.000
21.46899 8711.000
21.50955 8863.000
21.55011 9001.000
21.59067 8410.000
21.63123 7360.000
21.67179 5824.000
21.71235 4357.000
21.75291 3003.000
21.79347 2093.000
21.83403 1551.000
21.87459 1258.000
21.91515 1065.000
21.95571 1057.000
21.99628 902.000
22.03684 838.000
22.07740 898.000
22.11796 812.000
22.15852 797.000
22.19908 822.000
22.23964 826.000
22.28020 827.000
22.32076 962.000
22.36132 1036.000
22.40188 1176.000
22.44244 1248.000
22.48300 1382.000
22.52356 1271.000
22.56412 1162.000
22.60468 1079.000
22.64524 951.000
22.68580 956.000
22.72636 1039.000
22.76692 1071.000
22.80748 1231.000
22.84804 1356.000
22.88860 1302.000
22.92916 1298.000
22.96972 1315.000
23.01028 1128.000
23.05084 1028.000
23.09140 907.000
23.13196 833.000
23.17252 880.000
23.21308 967.000
23.25364 1081.000
23.29420 1241.000
23.33476 1501.000
23.37532 1752.000
23.41588 2198.000
23.45644 2791.000
23.49700 2908.000
23.53756 2858.000
23.57812 2627.000
23.61868 2158.000
23.65924 1729.000
23.69980 1573.000
23.74036 1342.000
23.78092 1351.000
23.82148 1271.000
23.86204 1093.000
23.90261 932.000
23.94317 853.000
23.98373 783.000
24.02429 766.000
24.06485 803.000
24.10541 845.000
24.14597 865.000
24.18653 1018.000
24.22709 1256.000
24.26765 1446.000
24.30821 1742.000
24.34877 2045.000
24.38933 2005.000
24.42989 1686.000
24.47045 1391.000
24.51101 1007.000
24.55157 973.000
24.59213 924.000
24.63269 933.000
24.67325 1039.000
24.71381 1164.000
24.75437 1074.000
24.79493 982.000
24.83549 847.000
24.87605 794.000
24.91661 777.000
24.95717 832.000
24.99773 896.000
25.03829 1142.000
25.07885 1274.000
25.11941 1394.000
25.15997 1581.000
25.20053 1625.000
25.24109 1581.000
25.28165 1404.000
25.32221 1344.000
25.36277 1208.000
25.40333 1249.000
25.44389 1225.000
25.48445 1134.000
25.52501 961.000
25.56557 850.000
25.60613 769.000
25.64669 767.000
25.68725 724.000
25.72781 757.000
25.76837 754.000
25.80893 794.000
25.84950 920.000
25.89006 1097.000
25.93062 1279.000
25.97118 1450.000
26.01174 1620.000
26.05230 1625.000
26.09286 1471.000
26.13342 1320.000
26.17398 1197.000
26.21454 1054.000
26.25510 1033.000
26.29566 1028.000
26.33622 1039.000
26.37678 1084.000
26.41734 1130.000
26.45790 1257.000
26.49846 1420.000
26.53902 1426.000
26.57958 1368.000
26.62014 1403.000
26.66070 1246.000
26.70126 1279.000
26.74182 1184.000
26.78238 1167.000
26.82294 1207.000
26.86350 1410.000
26.90406 1514.000
26.94462 1562.000
26.98518 1577.000
27.02574 1430.000
27.06630 1297.000
27.10686 1259.000
27.14742 1228.000
27.18798 1070.000
27.22854 1034.000
27.26910 1074.000
27.30966 1054.000
27.35022 1067.000
27.39078 1198.000
27.43134 1145.000
27.47190 1166.000
27.51246 1049.000
27.55302 854.000
27.59358 802.000
27.63414 746.000
27.67470 619.000
27.71526 534.000
27.75583 554.000
27.79639 495.000
27.83695 485.000
27.87751 501.000
27.91807 485.000
27.95863 491.000
27.99919 520.000
28.03975 527.000
28.08031 521.000
28.12087 569.000
28.16143 568.000
28.20199 591.000
28.24255 722.000
28.28311 768.000
28.32367 798.000
28.36423 911.000
28.40479 983.000
28.44535 1046.000
28.48591 1010.000
28.52647 1055.000
28.56703 1035.000
28.60759 963.000
28.64815 839.000
28.68871 762.000
28.72927 735.000
28.76983 756.000
28.81039 743.000
28.85095 802.000
28.89151 737.000
28.93207 881.000
28.97263 912.000
29.01319 990.000
29.05375 972.000
29.09431 927.000
29.13487 904.000
29.17543 880.000
29.21599 812.000
29.25655 823.000
29.29711 883.000
29.33767 808.000
29.37823 831.000
29.41879 854.000
29.45935 873.000
29.49991 802.000
29.54047 830.000
29.58103 836.000
29.62159 863.000
29.66216 834.000
29.70272 884.000
29.74328 969.000
29.78384 1004.000
29.82440 930.000
29.86496 885.000
29.90552 962.000
29.94608 938.000
29.98664 955.000
30.02720 925.000
30.06776 850.000
30.10832 759.000
30.14888 660.000
30.18944 723.000
30.23000 702.000
30.27056 689.000
30.31112 731.000
30.35168 825.000
30.39224 843.000
30.43280 772.000
30.47336 704.000
30.51392 644.000
30.55448 553.000
30.59504 486.000
30.63560 464.000
30.67616 459.000
30.71672 466.000
30.75728 462.000
30.79784 472.000
30.83840 506.000
30.87896 513.000
30.91952 568.000
30.96008 591.000
31.00064 630.000
31.04120 665.000
31.08176 682.000
31.12232 655.000
31.16288 718.000
31.20344 651.000
31.24400 615.000
31.28456 606.000
31.32512 533.000
31.36568 482.000
31.40624 509.000
31.44680 476.000
31.48736 504.000
31.52792 513.000
31.56849 516.000
31.60905 562.000
31.64961 550.000
31.69017 583.000
31.73073 553.000
31.77129 660.000
31.81185 666.000
31.85241 622.000
31.89297 640.000
31.93353 662.000
31.97409 674.000
32.01465 678.000
32.05521 615.000
32.09577 599.000
32.13633 630.000
32.17689 572.000
32.21745 568.000
32.25801 538.000
32.29857 551.000
32.33913 547.000
32.37969 488.000
32.42025 466.000
32.46081 475.000
32.50137 466.000
32.54193 442.000
32.58249 491.000
32.62305 467.000
32.66361 500.000
32.70417 491.000
32.74473 537.000
32.78529 547.000
32.82585 475.000
32.86641 565.000
32.90697 570.000
32.94753 551.000
32.98809 613.000
33.02865 625.000
33.06921 612.000
33.10977 594.000
33.15033 619.000
33.19089 603.000
33.23145 699.000
33.27201 731.000
33.31257 743.000
33.35313 715.000
33.39369 646.000
33.43425 579.000
33.47482 532.000
33.51538 496.000
33.55594 493.000
33.59650 523.000
33.63706 497.000
33.67762 485.000
33.71818 526.000
33.75874 493.000
33.79930 517.000
33.83986 560.000
33.88042 570.000
33.92098 544.000
33.96154 578.000
34.00210 592.000
34.04266 614.000
34.08322 641.000
34.12378 647.000
34.16434 645.000
34.20490 615.000
34.24546 657.000
34.28602 681.000
34.32658 694.000
34.36714 759.000
34.40770 755.000
34.44826 957.000
34.48882 986.000
34.52938 1115.000
34.56994 1139.000
34.61050 1049.000
34.65106 991.000
34.69162 847.000
34.73218 780.000
34.77274 773.000
34.81330 768.000
34.85386 848.000
34.89442 874.000
34.93498 887.000
34.97554 806.000
35.01610 757.000
35.05666 718.000
35.09722 654.000
35.13778 597.000
35.17834 621.000
35.21890 565.000
35.25946 581.000
35.30002 560.000
35.34058 553.000
35.38115 550.000
35.42171 577.000
35.46227 573.000
35.50283 602.000
35.54339 561.000
35.58395 595.000
35.62451 612.000
35.66507 550.000
35.70563 513.000
35.74619 484.000
35.78675 454.000
35.82731 435.000
35.86787 412.000
35.90843 444.000
35.94899 462.000
35.98955 469.000
36.03011 533.000
36.07067 459.000
36.11123 511.000
36.15179 537.000
36.19235 540.000
36.23291 595.000
36.27347 553.000
36.31403 548.000
36.35459 561.000
36.39515 543.000
36.43571 618.000
36.47627 679.000
36.51683 677.000
36.55739 730.000
36.59795 736.000
36.63851 741.000
36.67907 792.000
36.71963 846.000
36.76019 823.000
36.80075 808.000
36.84131 745.000
36.88187 684.000
36.92243 678.000
36.96299 639.000
37.00355 653.000
37.04411 670.000
37.08467 644.000
37.12523 609.000
37.16579 577.000
37.20635 612.000
37.24691 604.000
37.28748 573.000
37.32804 526.000
37.36860 536.000
37.40916 501.000
37.44972 551.000
37.49028 507.000
37.53084 556.000
37.57140 545.000
37.61196 571.000
37.65252 533.000
37.69308 554.000
37.73364 579.000
37.77420 609.000
37.81476 646.000
37.85532 627.000
37.89588 676.000
37.93644 648.000
37.97700 691.000
38.01756 680.000
38.05812 653.000
38.09868 635.000
38.13924 614.000
38.17980 555.000
38.22036 554.000
38.26092 551.000
38.30148 545.000
38.34204 559.000
38.38260 552.000
38.42316 531.000
38.46372 541.000
38.50428 531.000
38.54484 531.000
38.58540 505.000
38.62596 472.000
38.66652 455.000
38.70708 488.000
38.74764 438.000
38.78820 478.000
38.82876 447.000
38.86932 471.000
38.90988 457.000
38.95044 462.000
38.99100 490.000
39.03156 477.000
39.07212 481.000
39.11268 483.000
39.15324 505.000
39.19381 530.000
39.23437 515.000
39.27493 513.000
39.31549 542.000
39.35605 499.000
39.39661 567.000
39.43717 527.000
39.47773 548.000
39.51829 647.000
39.55885 610.000
39.59941 628.000
39.63997 590.000
39.68053 604.000
39.72109 590.000
39.76165 594.000
39.80221 557.000
39.84277 576.000
39.88333 550.000
39.92389 573.000
39.96445 558.000
40.00501 609.000
40.04557 673.000
40.08613 649.000
40.12669 726.000
40.16725 725.000
40.20781 706.000
40.24837 693.000
40.28893 689.000
40.32949 718.000
40.37005 655.000
40.41061 698.000
40.45117 631.000
40.49173 603.000
40.53229 630.000
40.57285 565.000
40.61341 496.000
40.65397 530.000
40.69453 491.000
40.73509 492.000
40.77565 472.000
40.81621 491.000
40.85677 475.000
40.89733 510.000
40.93789 525.000
40.97845 540.000
41.01901 515.000
41.05957 507.000
41.10014 519.000
41.14070 496.000
41.18126 551.000
41.22182 589.000
41.26238 579.000
41.30294 594.000
41.34350 640.000
41.38406 612.000
41.42462 597.000
41.46518 645.000
41.50574 676.000
41.54630 671.000
41.58686 627.000
41.62742 671.000
41.66798 716.000
41.70854 678.000
41.74910 683.000
41.78966 677.000
41.83022 645.000
41.87078 591.000
41.91134 578.000
41.95190 564.000
41.99246 494.000
42.03302 497.000
42.07358 486.000
42.11414 452.000
42.15470 522.000
42.19526 456.000
42.23582 467.000
42.27638 469.000
42.31694 471.000
42.35750 424.000
42.39806 451.000
42.43862 432.000
42.47918 449.000
42.51974 430.000
42.56030 415.000
42.60086 417.000
42.64142 447.000
42.68198 436.000
42.72254 449.000
42.76310 440.000
42.80366 439.000
42.84422 451.000
42.88478 440.000
42.92534 438.000
42.96590 457.000
43.00647 479.000
43.04703 499.000
43.08759 471.000
43.12815 543.000
43.16871 568.000
43.20927 571.000
43.24983 598.000
43.29039 626.000
43.33095 562.000
43.37151 620.000
43.41207 616.000
43.45263 543.000
43.49319 585.000
43.53375 529.000
43.57431 563.000
43.61487 601.000
43.65543 619.000
43.69599 566.000
43.73655 554.000
43.77711 635.000
43.81767 607.000
43.85823 616.000
43.89879 674.000
43.93935 663.000
43.97991 629.000
44.02047 660.000
44.06103 649.000
44.10159 583.000
44.14215 588.000
44.18271 578.000
44.22327 532.000
44.26383 542.000
44.30439 480.000
44.34495 487.000
44.38551 478.000
44.42607 501.000
44.46663 459.000
44.50719 474.000
44.54775 481.000
44.58831 513.000
44.62887 500.000
44.66943 508.000
44.70999 499.000
44.75055 513.000
44.79111 516.000
44.83167 534.000
44.87223 477.000
44.91280 510.000
44.95336 535.000
44.99392 479.000
45.03448 518.000
45.07504 499.000
45.11560 480.000
45.15616 467.000
45.19672 455.000
45.23728 424.000
45.27784 483.000
45.31840 444.000
45.35896 529.000
45.39952 485.000
45.44008 478.000
45.48064 477.000
45.52120 470.000
45.56176 493.000
45.60232 490.000
45.64288 522.000
45.68344 482.000
45.72400 498.000
45.76456 466.000
45.80512 542.000
45.84568 513.000
45.88624 498.000
45.92680 462.000
45.96736 484.000
46.00792 499.000
46.04848 489.000
46.08904 503.000
46.12960 504.000
46.17016 510.000
46.21072 475.000
46.25128 483.000
46.29184 515.000
46.33240 449.000
46.37296 479.000
46.41352 487.000
46.45408 555.000
46.49464 536.000
46.53520 520.000
46.57576 492.000
46.61632 498.000
46.65688 537.000
46.69744 498.000
46.73800 495.000
46.77856 496.000
46.81913 506.000
46.85969 496.000
46.90025 482.000
46.94081 480.000
46.98137 447.000
47.02193 468.000
47.06249 461.000
47.10305 489.000
47.14361 504.000
47.18417 514.000
47.22473 519.000
47.26529 551.000
47.30585 560.000
47.34641 566.000
47.38697 573.000
47.42753 540.000
47.46809 550.000
47.50865 558.000
47.54921 558.000
47.58977 530.000
47.63033 494.000
47.67089 534.000
47.71145 502.000
47.75201 481.000
47.79257 513.000
47.83313 478.000
47.87369 487.000
47.91425 475.000
47.95481 476.000
47.99537 472.000
48.03593 436.000
48.07649 411.000
48.11705 442.000
48.15761 438.000
48.19817 432.000
48.23873 443.000
48.27929 440.000
48.31985 419.000
48.36041 428.000
48.40097 408.000
48.44153 433.000
48.48209 397.000
48.52265 417.000
48.56321 430.000
48.60377 409.000
48.64433 407.000
48.68489 423.000
48.72546 434.000
48.76602 424.000
48.80658 383.000
48.84714 416.000
48.88770 407.000
48.92826 411.000
48.96882 399.000
49.00938 394.000
49.04994 393.000
49.09050 410.000
49.13106 452.000
49.17162 423.000
49.21218 405.000
49.25274 399.000
49.29330 353.000
49.33386 445.000
49.37442 413.000
49.41498 444.000
49.45554 388.000
49.49610 415.000
49.53666 456.000
49.57722 450.000
49.61778 429.000
49.65834 409.000
49.69890 419.000
49.73946 436.000
49.78002 444.000
49.82058 412.000
49.86114 415.000
49.90170 441.000
49.94226 403.000
49.98282 399.000
50.00310 448.000