File: Task01/nick/files/ESI_material_XRD/steady_state/crystal_size_analysis/Volumes_MeCN/1947_RVR_30ul_mill_MeCN.xy
5.00155 862.000
5.04211 853.000
5.08267 815.000
5.12323 779.000
5.16379 752.000
5.20435 775.000
5.24491 788.000
5.28547 710.000
5.32603 702.000
5.36659 714.000
5.40715 688.000
5.44771 745.000
5.48827 674.000
5.52883 663.000
5.56939 695.000
5.60995 607.000
5.65051 652.000
5.69107 669.000
5.73163 614.000
5.77219 590.000
5.81275 600.000
5.85331 610.000
5.89387 596.000
5.93443 550.000
5.97499 571.000
6.01555 592.000
6.05611 550.000
6.09667 523.000
6.13723 539.000
6.17779 545.000
6.21835 568.000
6.25891 543.000
6.29947 523.000
6.34003 591.000
6.38059 676.000
6.42115 709.000
6.46171 687.000
6.50227 666.000
6.54283 745.000
6.58339 848.000
6.62395 1170.000
6.66451 1539.000
6.70507 2321.000
6.74564 3434.000
6.78620 4440.000
6.82676 4981.000
6.86732 4147.000
6.90788 2558.000
6.94844 1420.000
6.98900 832.000
7.02956 601.000
7.07012 543.000
7.11068 576.000
7.15124 468.000
7.19180 548.000
7.23236 486.000
7.27292 459.000
7.31348 431.000
7.35404 505.000
7.39460 443.000
7.43516 463.000
7.47572 430.000
7.51628 458.000
7.55684 490.000
7.59740 491.000
7.63796 474.000
7.67852 502.000
7.71908 482.000
7.75964 530.000
7.80020 568.000
7.84076 619.000
7.88132 508.000
7.92188 498.000
7.96244 512.000
8.00300 508.000
8.04356 561.000
8.08412 621.000
8.12468 744.000
8.16524 949.000
8.20580 1257.000
8.24636 1784.000
8.28692 2611.000
8.32748 4069.000
8.36804 5060.000
8.40860 4798.000
8.44916 3233.000
8.48972 1925.000
8.53028 1401.000
8.57084 1429.000
8.61140 1648.000
8.65197 1736.000
8.69253 1345.000
8.73309 897.000
8.77365 653.000
8.81421 576.000
8.85477 429.000
8.89533 554.000
8.93589 487.000
8.97645 424.000
9.01701 466.000
9.05757 495.000
9.09813 470.000
9.13869 470.000
9.17925 505.000
9.21981 469.000
9.26037 518.000
9.30093 486.000
9.34149 564.000
9.38205 613.000
9.42261 778.000
9.46317 927.000
9.50373 1083.000
9.54429 878.000
9.58485 608.000
9.62541 550.000
9.66597 478.000
9.70653 543.000
9.74709 658.000
9.78765 865.000
9.82821 1144.000
9.86877 1261.000
9.90933 1029.000
9.94989 773.000
9.99045 582.000
10.03101 522.000
10.07157 512.000
10.11213 458.000
10.15269 462.000
10.19325 405.000
10.23381 444.000
10.27437 423.000
10.31493 444.000
10.35549 501.000
10.39605 519.000
10.43661 618.000
10.47717 772.000
10.51773 991.000
10.55830 1164.000
10.59886 1086.000
10.63942 759.000
10.67998 578.000
10.72054 536.000
10.76110 504.000
10.80166 518.000
10.84222 577.000
10.88278 739.000
10.92334 862.000
10.96390 833.000
11.00446 715.000
11.04502 529.000
11.08558 462.000
11.12614 369.000
11.16670 380.000
11.20726 394.000
11.24782 334.000
11.28838 366.000
11.32894 365.000
11.36950 397.000
11.41006 351.000
11.45062 354.000
11.49118 390.000
11.53174 400.000
11.57230 385.000
11.61286 348.000
11.65342 404.000
11.69398 409.000
11.73454 381.000
11.77510 410.000
11.81566 390.000
11.85622 350.000
11.89678 311.000
11.93734 383.000
11.97790 381.000
12.01846 377.000
12.05902 358.000
12.09958 424.000
12.14014 386.000
12.18070 359.000
12.22126 397.000
12.26182 357.000
12.30238 390.000
12.34294 402.000
12.38350 404.000
12.42406 438.000
12.46463 432.000
12.50519 377.000
12.54575 354.000
12.58631 355.000
12.62687 377.000
12.66743 401.000
12.70799 398.000
12.74855 383.000
12.78911 413.000
12.82967 404.000
12.87023 401.000
12.91079 427.000
12.95135 423.000
12.99191 441.000
13.03247 571.000
13.07303 558.000
13.11359 649.000
13.15415 750.000
13.19471 886.000
13.23527 932.000
13.27583 962.000
13.31639 994.000
13.35695 1041.000
13.39751 985.000
13.43807 985.000
13.47863 1084.000
13.51919 1349.000
13.55975 1536.000
13.60031 1505.000
13.64087 1387.000
13.68143 1369.000
13.72199 1207.000
13.76255 1188.000
13.80311 1017.000
13.84367 807.000
13.88423 580.000
13.92479 591.000
13.96535 522.000
14.00591 482.000
14.04647 472.000
14.08703 425.000
14.12759 453.000
14.16815 478.000
14.20871 470.000
14.24927 432.000
14.28983 469.000
14.33039 428.000
14.37096 514.000
14.41152 500.000
14.45208 524.000
14.49264 628.000
14.53320 754.000
14.57376 986.000
14.61432 1403.000
14.65488 1848.000
14.69544 1917.000
14.73600 1631.000
14.77656 1148.000
14.81712 923.000
14.85768 1067.000
14.89824 1349.000
14.93880 1346.000
14.97936 1123.000
15.01992 786.000
15.06048 658.000
15.10104 518.000
15.14160 493.000
15.18216 494.000
15.22272 479.000
15.26328 506.000
15.30384 477.000
15.34440 498.000
15.38496 462.000
15.42552 501.000
15.46608 534.000
15.50664 544.000
15.54720 557.000
15.58776 620.000
15.62832 627.000
15.66888 611.000
15.70944 618.000
15.75000 570.000
15.79056 581.000
15.83112 651.000
15.87168 659.000
15.91224 688.000
15.95280 852.000
15.99336 944.000
16.03392 1275.000
16.07448 1527.000
16.11504 1302.000
16.15560 1176.000
16.19616 1101.000
16.23672 1298.000
16.27729 1662.000
16.31785 2397.000
16.35841 3047.000
16.39897 3148.000
16.43953 2731.000
16.48009 2162.000
16.52065 1791.000
16.56121 1768.000
16.60177 2134.000
16.64233 2322.000
16.68289 2566.000
16.72345 2522.000
16.76401 2649.000
16.80457 2796.000
16.84513 2411.000
16.88569 1909.000
16.92625 1644.000
16.96681 1772.000
17.00737 2228.000
17.04793 2942.000
17.08849 3674.000
17.12905 3976.000
17.16961 3310.000
17.21017 2573.000
17.25073 1970.000
17.29129 1854.000
17.33185 1900.000
17.37241 1696.000
17.41297 1334.000
17.45353 1089.000
17.49409 926.000
17.53465 887.000
17.57521 998.000
17.61577 1147.000
17.65633 1365.000
17.69689 1834.000
17.73745 2276.000
17.77801 2611.000
17.81857 2325.000
17.85913 2027.000
17.89969 1893.000
17.94025 2274.000
17.98081 2836.000
18.02137 4018.000
18.06193 5113.000
18.10249 5791.000
18.14305 5323.000
18.18362 4314.000
18.22418 3079.000
18.26474 2548.000
18.30530 2531.000
18.34586 2600.000
18.38642 2675.000
18.42698 2391.000
18.46754 1886.000
18.50810 1614.000
18.54866 1739.000
18.58922 1941.000
18.62978 2481.000
18.67034 2966.000
18.71090 3103.000
18.75146 2787.000
18.79202 2386.000
18.83258 2103.000
18.87314 1983.000
18.91370 1876.000
18.95426 1846.000
18.99482 1851.000
19.03538 1851.000
19.07594 1673.000
19.11650 1380.000
19.15706 1238.000
19.19762 1089.000
19.23818 1124.000
19.27874 1238.000
19.31930 1431.000
19.35986 1802.000
19.40042 2256.000
19.44098 3046.000
19.48154 3777.000
19.52210 4088.000
19.56266 3646.000
19.60322 2969.000
19.64378 2445.000
19.68434 2039.000
19.72490 2186.000
19.76546 2444.000
19.80602 2823.000
19.84658 3142.000
19.88714 3663.000
19.92770 3987.000
19.96826 3977.000
20.00882 3696.000
20.04938 3260.000
20.08995 2915.000
20.13051 2776.000
20.17107 2856.000
20.21163 2994.000
20.25219 3139.000
20.29275 3506.000
20.33331 3966.000
20.37387 3827.000
20.41443 3065.000
20.45499 2153.000
20.49555 1751.000
20.53611 1768.000
20.57667 1857.000
20.61723 1941.000
20.65779 1812.000
20.69835 1577.000
20.73891 1210.000
20.77947 1044.000
20.82003 1059.000
20.86059 1079.000
20.90115 1053.000
20.94171 1122.000
20.98227 1120.000
21.02283 1230.000
21.06339 1265.000
21.10395 1392.000
21.14451 1663.000
21.18507 2016.000
21.22563 2291.000
21.26619 2962.000
21.30675 3830.000
21.34731 5044.000
21.38787 6242.000
21.42843 7256.000
21.46899 8211.000
21.50955 8819.000
21.55011 8969.000
21.59067 8997.000
21.63123 8555.000
21.67179 7510.000
21.71235 6017.000
21.75291 4268.000
21.79347 3011.000
21.83403 2067.000
21.87459 1509.000
21.91515 1330.000
21.95571 1253.000
21.99628 1271.000
22.03684 1204.000
22.07740 1161.000
22.11796 1302.000
22.15852 1377.000
22.19908 1376.000
22.23964 1235.000
22.28020 1125.000
22.32076 1081.000
22.36132 1080.000
22.40188 1227.000
22.44244 1335.000
22.48300 1419.000
22.52356 1493.000
22.56412 1506.000
22.60468 1261.000
22.64524 1223.000
22.68580 1250.000
22.72636 1228.000
22.76692 1333.000
22.80748 1415.000
22.84804 1413.000
22.88860 1478.000
22.92916 1424.000
22.96972 1471.000
23.01028 1423.000
23.05084 1317.000
23.09140 1212.000
23.13196 1078.000
23.17252 996.000
23.21308 1023.000
23.25364 1111.000
23.29420 1273.000
23.33476 1466.000
23.37532 1810.000
23.41588 2320.000
23.45644 2584.000
23.49700 2926.000
23.53756 3025.000
23.57812 2873.000
23.61868 2459.000
23.65924 2090.000
23.69980 1742.000
23.74036 1507.000
23.78092 1483.000
23.82148 1435.000
23.86204 1372.000
23.90261 1261.000
23.94317 1155.000
23.98373 1088.000
24.02429 1056.000
24.06485 1076.000
24.10541 1099.000
24.14597 1144.000
24.18653 1181.000
24.22709 1257.000
24.26765 1475.000
24.30821 1584.000
24.34877 1956.000
24.38933 2214.000
24.42989 2241.000
24.47045 1860.000
24.51101 1474.000
24.55157 1154.000
24.59213 1098.000
24.63269 1120.000
24.67325 1202.000
24.71381 1348.000
24.75437 1362.000
24.79493 1303.000
24.83549 1239.000
24.87605 1032.000
24.91661 933.000
24.95717 926.000
24.99773 1003.000
25.03829 1131.000
25.07885 1344.000
25.11941 1454.000
25.15997 1647.000
25.20053 1806.000
25.24109 1921.000
25.28165 2017.000
25.32221 1886.000
25.36277 1813.000
25.40333 1690.000
25.44389 1588.000
25.48445 1427.000
25.52501 1404.000
25.56557 1107.000
25.60613 953.000
25.64669 888.000
25.68725 888.000
25.72781 885.000
25.76837 941.000
25.80893 1083.000
25.84950 1091.000
25.89006 1170.000
25.93062 1232.000
25.97118 1461.000
26.01174 1728.000
26.05230 1855.000
26.09286 1870.000
26.13342 1809.000
26.17398 1482.000
26.21454 1432.000
26.25510 1226.000
26.29566 1267.000
26.33622 1247.000
26.37678 1309.000
26.41734 1265.000
26.45790 1387.000
26.49846 1512.000
26.53902 1453.000
26.57958 1489.000
26.62014 1407.000
26.66070 1374.000
26.70126 1294.000
26.74182 1185.000
26.78238 1246.000
26.82294 1345.000
26.86350 1420.000
26.90406 1545.000
26.94462 1663.000
26.98518 1651.000
27.02574 1515.000
27.06630 1478.000
27.10686 1402.000
27.14742 1262.000
27.18798 1237.000
27.22854 1067.000
27.26910 1044.000
27.30966 1094.000
27.35022 1082.000
27.39078 1128.000
27.43134 1218.000
27.47190 1309.000
27.51246 1210.000
27.55302 1158.000
27.59358 986.000
27.63414 785.000
27.67470 694.000
27.71526 677.000
27.75583 595.000
27.79639 665.000
27.83695 609.000
27.87751 586.000
27.91807 620.000
27.95863 557.000
27.99919 569.000
28.03975 605.000
28.08031 595.000
28.12087 573.000
28.16143 663.000
28.20199 702.000
28.24255 700.000
28.28311 778.000
28.32367 867.000
28.36423 938.000
28.40479 1069.000
28.44535 1150.000
28.48591 1286.000
28.52647 1285.000
28.56703 1296.000
28.60759 1393.000
28.64815 1275.000
28.68871 1088.000
28.72927 1034.000
28.76983 958.000
28.81039 924.000
28.85095 863.000
28.89151 895.000
28.93207 925.000
28.97263 901.000
29.01319 1005.000
29.05375 1039.000
29.09431 1035.000
29.13487 1027.000
29.17543 998.000
29.21599 909.000
29.25655 864.000
29.29711 966.000
29.33767 946.000
29.37823 956.000
29.41879 869.000
29.45935 859.000
29.49991 857.000
29.54047 829.000
29.58103 863.000
29.62159 970.000
29.66216 1029.000
29.70272 1073.000
29.74328 1092.000
29.78384 1211.000
29.82440 1213.000
29.86496 1204.000
29.90552 1196.000
29.94608 1143.000
29.98664 1125.000
30.02720 1005.000
30.06776 1047.000
30.10832 975.000
30.14888 896.000
30.18944 919.000
30.23000 843.000
30.27056 789.000
30.31112 839.000
30.35168 843.000
30.39224 961.000
30.43280 913.000
30.47336 777.000
30.51392 750.000
30.55448 694.000
30.59504 620.000
30.63560 552.000
30.67616 542.000
30.71672 583.000
30.75728 584.000
30.79784 615.000
30.83840 608.000
30.87896 619.000
30.91952 661.000
30.96008 659.000
31.00064 666.000
31.04120 698.000
31.08176 781.000
31.12232 844.000
31.16288 798.000
31.20344 737.000
31.24400 769.000
31.28456 705.000
31.32512 765.000
31.36568 701.000
31.40624 665.000
31.44680 682.000
31.48736 707.000
31.52792 714.000
31.56849 707.000
31.60905 775.000
31.64961 794.000
31.69017 802.000
31.73073 829.000
31.77129 859.000
31.81185 790.000
31.85241 780.000
31.89297 774.000
31.93353 775.000
31.97409 815.000
32.01465 763.000
32.05521 797.000
32.09577 750.000
32.13633 716.000
32.17689 696.000
32.21745 662.000
32.25801 667.000
32.29857 626.000
32.33913 611.000
32.37969 602.000
32.42025 610.000
32.46081 602.000
32.50137 599.000
32.54193 511.000
32.58249 501.000
32.62305 557.000
32.66361 587.000
32.70417 619.000
32.74473 628.000
32.78529 577.000
32.82585 592.000
32.86641 600.000
32.90697 685.000
32.94753 608.000
32.98809 638.000
33.02865 673.000
33.06921 682.000
33.10977 662.000
33.15033 721.000
33.19089 810.000
33.23145 694.000
33.27201 719.000
33.31257 777.000
33.35313 783.000
33.39369 714.000
33.43425 725.000
33.47482 685.000
33.51538 654.000
33.55594 642.000
33.59650 628.000
33.63706 586.000
33.67762 655.000
33.71818 612.000
33.75874 557.000
33.79930 579.000
33.83986 606.000
33.88042 569.000
33.92098 581.000
33.96154 600.000
34.00210 641.000
34.04266 638.000
34.08322 607.000
34.12378 596.000
34.16434 701.000
34.20490 686.000
34.24546 713.000
34.28602 671.000
34.32658 744.000
34.36714 671.000
34.40770 781.000
34.44826 839.000
34.48882 952.000
34.52938 1013.000
34.56994 1074.000
34.61050 1073.000
34.65106 1022.000
34.69162 938.000
34.73218 865.000
34.77274 821.000
34.81330 833.000
34.85386 803.000
34.89442 887.000
34.93498 901.000
34.97554 903.000
35.01610 831.000
35.05666 900.000
35.09722 807.000
35.13778 775.000
35.17834 767.000
35.21890 693.000
35.25946 678.000
35.30002 730.000
35.34058 663.000
35.38115 627.000
35.42171 653.000
35.46227 620.000
35.50283 639.000
35.54339 629.000
35.58395 605.000
35.62451 591.000
35.66507 566.000
35.70563 584.000
35.74619 564.000
35.78675 550.000
35.82731 547.000
35.86787 530.000
35.90843 524.000
35.94899 534.000
35.98955 549.000
36.03011 582.000
36.07067 619.000
36.11123 625.000
36.15179 646.000
36.19235 763.000
36.23291 738.000
36.27347 702.000
36.31403 704.000
36.35459 690.000
36.39515 693.000
36.43571 773.000
36.47627 706.000
36.51683 749.000
36.55739 707.000
36.59795 763.000
36.63851 772.000
36.67907 825.000
36.71963 847.000
36.76019 861.000
36.80075 790.000
36.84131 804.000
36.88187 794.000
36.92243 747.000
36.96299 716.000
37.00355 707.000
37.04411 668.000
37.08467 708.000
37.12523 669.000
37.16579 694.000
37.20635 651.000
37.24691 660.000
37.28748 663.000
37.32804 647.000
37.36860 625.000
37.40916 600.000
37.44972 549.000
37.49028 604.000
37.53084 586.000
37.57140 550.000
37.61196 556.000
37.65252 602.000
37.69308 606.000
37.73364 631.000
37.77420 617.000
37.81476 685.000
37.85532 649.000
37.89588 696.000
37.93644 715.000
37.97700 723.000
38.01756 730.000
38.05812 731.000
38.09868 663.000
38.13924 660.000
38.17980 631.000
38.22036 575.000
38.26092 653.000
38.30148 576.000
38.34204 593.000
38.38260 627.000
38.42316 659.000
38.46372 656.000
38.50428 662.000
38.54484 627.000
38.58540 583.000
38.62596 552.000
38.66652 523.000
38.70708 518.000
38.74764 543.000
38.78820 552.000
38.82876 522.000
38.86932 551.000
38.90988 534.000
38.95044 545.000
38.99100 575.000
39.03156 589.000
39.07212 545.000
39.11268 605.000
39.15324 606.000
39.19381 544.000
39.23437 543.000
39.27493 561.000
39.31549 566.000
39.35605 623.000
39.39661 587.000
39.43717 615.000
39.47773 680.000
39.51829 674.000
39.55885 664.000
39.59941 728.000
39.63997 709.000
39.68053 670.000
39.72109 695.000
39.76165 615.000
39.80221 664.000
39.84277 620.000
39.88333 620.000
39.92389 677.000
39.96445 619.000
40.00501 614.000
40.04557 701.000
40.08613 724.000
40.12669 744.000
40.16725 806.000
40.20781 809.000
40.24837 785.000
40.28893 797.000
40.32949 773.000
40.37005 828.000
40.41061 798.000
40.45117 774.000
40.49173 799.000
40.53229 755.000
40.57285 735.000
40.61341 664.000
40.65397 649.000
40.69453 579.000
40.73509 599.000
40.77565 577.000
40.81621 563.000
40.85677 572.000
40.89733 560.000
40.93789 541.000
40.97845 559.000
41.01901 535.000
41.05957 656.000
41.10014 574.000
41.14070 578.000
41.18126 563.000
41.22182 602.000
41.26238 621.000
41.30294 657.000
41.34350 683.000
41.38406 667.000
41.42462 637.000
41.46518 696.000
41.50574 660.000
41.54630 663.000
41.58686 658.000
41.62742 674.000
41.66798 679.000
41.70854 735.000
41.74910 705.000
41.78966 718.000
41.83022 709.000
41.87078 662.000
41.91134 574.000
41.95190 567.000
41.99246 555.000
42.03302 493.000
42.07358 479.000
42.11414 506.000
42.15470 490.000
42.19526 536.000
42.23582 474.000
42.27638 528.000
42.31694 497.000
42.35750 475.000
42.39806 482.000
42.43862 512.000
42.47918 500.000
42.51974 493.000
42.56030 505.000
42.60086 517.000
42.64142 494.000
42.68198 500.000
42.72254 516.000
42.76310 472.000
42.80366 464.000
42.84422 427.000
42.88478 498.000
42.92534 485.000
42.96590 521.000
43.00647 546.000
43.04703 537.000
43.08759 624.000
43.12815 597.000
43.16871 577.000
43.20927 608.000
43.24983 611.000
43.29039 623.000
43.33095 663.000
43.37151 599.000
43.41207 654.000
43.45263 645.000
43.49319 635.000
43.53375 640.000
43.57431 672.000
43.61487 651.000
43.65543 659.000
43.69599 612.000
43.73655 618.000
43.77711 702.000
43.81767 692.000
43.85823 698.000
43.89879 665.000
43.93935 679.000
43.97991 668.000
44.02047 694.000
44.06103 649.000
44.10159 668.000
44.14215 622.000
44.18271 627.000
44.22327 633.000
44.26383 620.000
44.30439 602.000
44.34495 585.000
44.38551 584.000
44.42607 588.000
44.46663 574.000
44.50719 583.000
44.54775 569.000
44.58831 566.000
44.62887 570.000
44.66943 565.000
44.70999 549.000
44.75055 549.000
44.79111 566.000
44.83167 608.000
44.87223 556.000
44.91280 588.000
44.95336 538.000
44.99392 591.000
45.03448 537.000
45.07504 613.000
45.11560 555.000
45.15616 529.000
45.19672 505.000
45.23728 564.000
45.27784 549.000
45.31840 532.000
45.35896 502.000
45.39952 550.000
45.44008 544.000
45.48064 540.000
45.52120 513.000
45.56176 541.000
45.60232 561.000
45.64288 541.000
45.68344 561.000
45.72400 540.000
45.76456 522.000
45.80512 551.000
45.84568 548.000
45.88624 537.000
45.92680 543.000
45.96736 530.000
46.00792 475.000
46.04848 527.000
46.08904 519.000
46.12960 565.000
46.17016 571.000
46.21072 505.000
46.25128 514.000
46.29184 550.000
46.33240 553.000
46.37296 586.000
46.41352 599.000
46.45408 609.000
46.49464 527.000
46.53520 549.000
46.57576 591.000
46.61632 528.000
46.65688 532.000
46.69744 587.000
46.73800 562.000
46.77856 544.000
46.81913 528.000
46.85969 535.000
46.90025 524.000
46.94081 525.000
46.98137 509.000
47.02193 498.000
47.06249 520.000
47.10305 547.000
47.14361 528.000
47.18417 582.000
47.22473 595.000
47.26529 558.000
47.30585 548.000
47.34641 579.000
47.38697 595.000
47.42753 613.000
47.46809 632.000
47.50865 541.000
47.54921 612.000
47.58977 574.000
47.63033 547.000
47.67089 559.000
47.71145 560.000
47.75201 548.000
47.79257 511.000
47.83313 527.000
47.87369 522.000
47.91425 546.000
47.95481 540.000
47.99537 524.000
48.03593 524.000
48.07649 540.000
48.11705 525.000
48.15761 517.000
48.19817 501.000
48.23873 458.000
48.27929 537.000
48.31985 508.000
48.36041 460.000
48.40097 473.000
48.44153 502.000
48.48209 501.000
48.52265 460.000
48.56321 483.000
48.60377 448.000
48.64433 487.000
48.68489 446.000
48.72546 477.000
48.76602 479.000
48.80658 460.000
48.84714 473.000
48.88770 413.000
48.92826 470.000
48.96882 421.000
49.00938 459.000
49.04994 469.000
49.09050 502.000
49.13106 474.000
49.17162 429.000
49.21218 501.000
49.25274 479.000
49.29330 475.000
49.33386 488.000
49.37442 428.000
49.41498 438.000
49.45554 470.000
49.49610 476.000
49.53666 471.000
49.57722 498.000
49.61778 466.000
49.65834 492.000
49.69890 464.000
49.73946 489.000
49.78002 471.000
49.82058 451.000
49.86114 472.000
49.90170 479.000
49.94226 456.000
49.98282 486.000
50.00310 454.000