File: Task01/nick/files/ESI_material_XRD/steady_state/crystal_size_analysis/Volumes_MeCN/1962_RVR_50ul_mill_MeCN_081020.xy
5.00155 818.000
5.04211 831.000
5.08267 803.000
5.12323 759.000
5.16379 778.000
5.20435 693.000
5.24491 762.000
5.28547 674.000
5.32603 687.000
5.36659 722.000
5.40715 692.000
5.44771 672.000
5.48827 657.000
5.52883 605.000
5.56939 565.000
5.60995 643.000
5.65051 545.000
5.69107 562.000
5.73163 564.000
5.77219 521.000
5.81275 504.000
5.85331 584.000
5.89387 557.000
5.93443 530.000
5.97499 475.000
6.01555 522.000
6.05611 482.000
6.09667 523.000
6.13723 494.000
6.17779 526.000
6.21835 498.000
6.25891 545.000
6.29947 565.000
6.34003 661.000
6.38059 796.000
6.42115 944.000
6.46171 812.000
6.50227 621.000
6.54283 522.000
6.58339 488.000
6.62395 490.000
6.66451 593.000
6.70507 693.000
6.74564 806.000
6.78620 890.000
6.82676 957.000
6.86732 852.000
6.90788 673.000
6.94844 551.000
6.98900 419.000
7.02956 408.000
7.07012 395.000
7.11068 377.000
7.15124 327.000
7.19180 375.000
7.23236 367.000
7.27292 330.000
7.31348 356.000
7.35404 363.000
7.39460 392.000
7.43516 352.000
7.47572 362.000
7.51628 330.000
7.55684 391.000
7.59740 362.000
7.63796 376.000
7.67852 375.000
7.71908 419.000
7.75964 384.000
7.80020 354.000
7.84076 370.000
7.88132 381.000
7.92188 357.000
7.96244 324.000
8.00300 366.000
8.04356 315.000
8.08412 362.000
8.12468 411.000
8.16524 455.000
8.20580 461.000
8.24636 518.000
8.28692 700.000
8.32748 933.000
8.36804 1149.000
8.40860 1291.000
8.44916 1265.000
8.48972 1386.000
8.53028 2185.000
8.57084 3622.000
8.61140 5336.000
8.65197 5930.000
8.69253 3872.000
8.73309 1806.000
8.77365 949.000
8.81421 643.000
8.85477 541.000
8.89533 459.000
8.93589 455.000
8.97645 416.000
9.01701 418.000
9.05757 418.000
9.09813 427.000
9.13869 441.000
9.17925 427.000
9.21981 465.000
9.26037 542.000
9.30093 583.000
9.34149 749.000
9.38205 1239.000
9.42261 1911.000
9.46317 2875.000
9.50373 3169.000
9.54429 2139.000
9.58485 1094.000
9.62541 759.000
9.66597 775.000
9.70653 986.000
9.74709 1503.000
9.78765 2464.000
9.82821 3829.000
9.86877 4213.000
9.90933 2918.000
9.94989 1360.000
9.99045 795.000
10.03101 611.000
10.07157 569.000
10.11213 465.000
10.15269 459.000
10.19325 401.000
10.23381 425.000
10.27437 419.000
10.31493 356.000
10.35549 422.000
10.39605 456.000
10.43661 523.000
10.47717 495.000
10.51773 518.000
10.55830 458.000
10.59886 512.000
10.63942 490.000
10.67998 437.000
10.72054 466.000
10.76110 518.000
10.80166 692.000
10.84222 1022.000
10.88278 1716.000
10.92334 2423.000
10.96390 2450.000
11.00446 1569.000
11.04502 872.000
11.08558 463.000
11.12614 363.000
11.16670 396.000
11.20726 367.000
11.24782 381.000
11.28838 350.000
11.32894 334.000
11.36950 339.000
11.41006 324.000
11.45062 349.000
11.49118 340.000
11.53174 324.000
11.57230 322.000
11.61286 304.000
11.65342 343.000
11.69398 288.000
11.73454 313.000
11.77510 315.000
11.81566 334.000
11.85622 356.000
11.89678 326.000
11.93734 334.000
11.97790 320.000
12.01846 336.000
12.05902 339.000
12.09958 349.000
12.14014 329.000
12.18070 287.000
12.22126 322.000
12.26182 313.000
12.30238 380.000
12.34294 386.000
12.38350 425.000
12.42406 402.000
12.46463 346.000
12.50519 341.000
12.54575 315.000
12.58631 332.000
12.62687 314.000
12.66743 280.000
12.70799 341.000
12.74855 348.000
12.78911 295.000
12.82967 364.000
12.87023 340.000
12.91079 445.000
12.95135 447.000
12.99191 543.000
13.03247 495.000
13.07303 434.000
13.11359 473.000
13.15415 574.000
13.19471 680.000
13.23527 922.000
13.27583 1004.000
13.31639 774.000
13.35695 598.000
13.39751 548.000
13.43807 552.000
13.47863 617.000
13.51919 704.000
13.55975 944.000
13.60031 1268.000
13.64087 1922.000
13.68143 2562.000
13.72199 2598.000
13.76255 2471.000
13.80311 2350.000
13.84367 1814.000
13.88423 977.000
13.92479 593.000
13.96535 469.000
14.00591 399.000
14.04647 416.000
14.08703 357.000
14.12759 371.000
14.16815 348.000
14.20871 361.000
14.24927 353.000
14.28983 318.000
14.33039 374.000
14.37096 376.000
14.41152 341.000
14.45208 374.000
14.49264 364.000
14.53320 427.000
14.57376 383.000
14.61432 491.000
14.65488 511.000
14.69544 613.000
14.73600 572.000
14.77656 581.000
14.81712 731.000
14.85768 854.000
14.89824 884.000
14.93880 698.000
14.97936 553.000
15.01992 443.000
15.06048 355.000
15.10104 402.000
15.14160 377.000
15.18216 338.000
15.22272 378.000
15.26328 400.000
15.30384 400.000
15.34440 409.000
15.38496 421.000
15.42552 440.000
15.46608 464.000
15.50664 589.000
15.54720 725.000
15.58776 915.000
15.62832 1010.000
15.66888 932.000
15.70944 766.000
15.75000 683.000
15.79056 610.000
15.83112 664.000
15.87168 712.000
15.91224 925.000
15.95280 1430.000
15.99336 2230.000
16.03392 3250.000
16.07448 3933.000
16.11504 3331.000
16.15560 1835.000
16.19616 953.000
16.23672 819.000
16.27729 894.000
16.31785 1109.000
16.35841 1394.000
16.39897 1671.000
16.43953 1682.000
16.48009 1459.000
16.52065 1349.000
16.56121 1609.000
16.60177 2269.000
16.64233 3297.000
16.68289 3514.000
16.72345 2444.000
16.76401 1512.000
16.80457 1059.000
16.84513 953.000
16.88569 829.000
16.92625 769.000
16.96681 778.000
17.00737 801.000
17.04793 939.000
17.08849 1222.000
17.12905 1347.000
17.16961 1547.000
17.21017 1840.000
17.25073 2591.000
17.29129 3810.000
17.33185 4766.000
17.37241 4204.000
17.41297 2711.000
17.45353 1489.000
17.49409 1176.000
17.53465 1223.000
17.57521 1610.000
17.61577 2230.000
17.65633 3423.000
17.69689 5131.000
17.73745 6887.000
17.77801 7092.000
17.81857 4740.000
17.85913 2670.000
17.89969 1823.000
17.94025 1598.000
17.98081 1576.000
18.02137 1591.000
18.06193 1689.000
18.10249 1964.000
18.14305 1996.000
18.18362 2355.000
18.22418 3257.000
18.26474 4325.000
18.30530 5778.000
18.34586 7062.000
18.38642 7747.000
18.42698 5596.000
18.46754 3210.000
18.50810 1682.000
18.54866 1147.000
18.58922 1150.000
18.62978 1167.000
18.67034 1244.000
18.71090 1405.000
18.75146 1594.000
18.79202 1937.000
18.83258 2543.000
18.87314 3202.000
18.91370 3535.000
18.95426 2999.000
18.99482 2200.000
19.03538 1766.000
19.07594 1409.000
19.11650 1093.000
19.15706 1003.000
19.19762 966.000
19.23818 1088.000
19.27874 1282.000
19.31930 1470.000
19.35986 1577.000
19.40042 2034.000
19.44098 2619.000
19.48154 3302.000
19.52210 3225.000
19.56266 2635.000
19.60322 1998.000
19.64378 1957.000
19.68434 2307.000
19.72490 2923.000
19.76546 3488.000
19.80602 3242.000
19.84658 2755.000
19.88714 2711.000
19.92770 3158.000
19.96826 4088.000
20.00882 5375.000
20.04938 5504.000
20.08995 4314.000
20.13051 2851.000
20.17107 2067.000
20.21163 1818.000
20.25219 1988.000
20.29275 2115.000
20.33331 2445.000
20.37387 2316.000
20.41443 2022.000
20.45499 1946.000
20.49555 2316.000
20.53611 2868.000
20.57667 3716.000
20.61723 4503.000
20.65779 3991.000
20.69835 2631.000
20.73891 1470.000
20.77947 1123.000
20.82003 1054.000
20.86059 1161.000
20.90115 1243.000
20.94171 1232.000
20.98227 1096.000
21.02283 905.000
21.06339 959.000
21.10395 992.000
21.14451 1095.000
21.18507 1240.000
21.22563 1494.000
21.26619 1700.000
21.30675 2021.000
21.34731 2258.000
21.38787 3076.000
21.42843 3716.000
21.46899 4199.000
21.50955 4184.000
21.55011 4134.000
21.59067 4832.000
21.63123 5942.000
21.67179 6725.000
21.71235 6008.000
21.75291 3906.000
21.79347 2121.000
21.83403 1358.000
21.87459 1233.000
21.91515 1227.000
21.95571 1300.000
21.99628 1471.000
22.03684 1450.000
22.07740 1730.000
22.11796 2226.000
22.15852 2734.000
22.19908 2810.000
22.23964 2161.000
22.28020 1287.000
22.32076 1041.000
22.36132 883.000
22.40188 901.000
22.44244 947.000
22.48300 1082.000
22.52356 1146.000
22.56412 1170.000
22.60468 1244.000
22.64524 1342.000
22.68580 1477.000
22.72636 1716.000
22.76692 1732.000
22.80748 1394.000
22.84804 1095.000
22.88860 916.000
22.92916 851.000
22.96972 847.000
23.01028 942.000
23.05084 1029.000
23.09140 951.000
23.13196 904.000
23.17252 797.000
23.21308 804.000
23.25364 847.000
23.29420 999.000
23.33476 1205.000
23.37532 1596.000
23.41588 1838.000
23.45644 2006.000
23.49700 1624.000
23.53756 1371.000
23.57812 1265.000
23.61868 1145.000
23.65924 1226.000
23.69980 1244.000
23.74036 1183.000
23.78092 1008.000
23.82148 1089.000
23.86204 1148.000
23.90261 1316.000
23.94317 1479.000
23.98373 1435.000
24.02429 1452.000
24.06485 1414.000
24.10541 1497.000
24.14597 1488.000
24.18653 1669.000
24.22709 1378.000
24.26765 1162.000
24.30821 1014.000
24.34877 1064.000
24.38933 1173.000
24.42989 1193.000
24.47045 1210.000
24.51101 1072.000
24.55157 883.000
24.59213 940.000
24.63269 1037.000
24.67325 1193.000
24.71381 1495.000
24.75437 1568.000
24.79493 1472.000
24.83549 1370.000
24.87605 1119.000
24.91661 932.000
24.95717 822.000
24.99773 775.000
25.03829 769.000
25.07885 878.000
25.11941 1095.000
25.15997 1296.000
25.20053 1600.000
25.24109 2024.000
25.28165 2562.000
25.32221 2973.000
25.36277 2867.000
25.40333 2188.000
25.44389 1830.000
25.48445 1447.000
25.52501 1128.000
25.56557 923.000
25.60613 823.000
25.64669 813.000
25.68725 986.000
25.72781 1105.000
25.76837 1310.000
25.80893 1486.000
25.84950 1265.000
25.89006 1161.000
25.93062 1087.000
25.97118 1104.000
26.01174 1434.000
26.05230 1704.000
26.09286 1962.000
26.13342 1925.000
26.17398 1584.000
26.21454 1394.000
26.25510 1376.000
26.29566 1427.000
26.33622 1433.000
26.37678 1376.000
26.41734 1394.000
26.45790 1384.000
26.49846 1362.000
26.53902 1261.000
26.57958 980.000
26.62014 828.000
26.66070 732.000
26.70126 733.000
26.74182 769.000
26.78238 780.000
26.82294 834.000
26.86350 983.000
26.90406 1093.000
26.94462 1094.000
26.98518 950.000
27.02574 822.000
27.06630 627.000
27.10686 619.000
27.14742 668.000
27.18798 633.000
27.22854 676.000
27.26910 697.000
27.30966 697.000
27.35022 737.000
27.39078 772.000
27.43134 729.000
27.47190 767.000
27.51246 873.000
27.55302 806.000
27.59358 727.000
27.63414 610.000
27.67470 530.000
27.71526 483.000
27.75583 493.000
27.79639 531.000
27.83695 477.000
27.87751 517.000
27.91807 496.000
27.95863 540.000
27.99919 559.000
28.03975 552.000
28.08031 515.000
28.12087 529.000
28.16143 538.000
28.20199 533.000
28.24255 553.000
28.28311 580.000
28.32367 663.000
28.36423 839.000
28.40479 1001.000
28.44535 1198.000
28.48591 1441.000
28.52647 1719.000
28.56703 1865.000
28.60759 1775.000
28.64815 1636.000
28.68871 1379.000
28.72927 1268.000
28.76983 1132.000
28.81039 1028.000
28.85095 814.000
28.89151 691.000
28.93207 593.000
28.97263 535.000
29.01319 555.000
29.05375 547.000
29.09431 623.000
29.13487 589.000
29.17543 683.000
29.21599 663.000
29.25655 590.000
29.29711 556.000
29.33767 561.000
29.37823 536.000
29.41879 554.000
29.45935 585.000
29.49991 532.000
29.54047 605.000
29.58103 659.000
29.62159 770.000
29.66216 896.000
29.70272 1056.000
29.74328 1246.000
29.78384 1402.000
29.82440 1430.000
29.86496 1345.000
29.90552 1257.000
29.94608 1135.000
29.98664 1083.000
30.02720 1115.000
30.06776 1224.000
30.10832 1148.000
30.14888 1086.000
30.18944 1028.000
30.23000 962.000
30.27056 892.000
30.31112 787.000
30.35168 858.000
30.39224 715.000
30.43280 642.000
30.47336 598.000
30.51392 529.000
30.55448 490.000
30.59504 497.000
30.63560 532.000
30.67616 535.000
30.71672 582.000
30.75728 596.000
30.79784 602.000
30.83840 613.000
30.87896 617.000
30.91952 727.000
30.96008 667.000
31.00064 606.000
31.04120 614.000
31.08176 654.000
31.12232 662.000
31.16288 616.000
31.20344 717.000
31.24400 780.000
31.28456 894.000
31.32512 920.000
31.36568 906.000
31.40624 906.000
31.44680 917.000
31.48736 910.000
31.52792 1057.000
31.56849 1193.000
31.60905 1350.000
31.64961 1419.000
31.69017 1350.000
31.73073 1154.000
31.77129 1064.000
31.81185 879.000
31.85241 815.000
31.89297 772.000
31.93353 793.000
31.97409 847.000
32.01465 873.000
32.05521 973.000
32.09577 846.000
32.13633 746.000
32.17689 695.000
32.21745 626.000
32.25801 569.000
32.29857 631.000
32.33913 597.000
32.37969 630.000
32.42025 625.000
32.46081 587.000
32.50137 538.000
32.54193 467.000
32.58249 517.000
32.62305 506.000
32.66361 498.000
32.70417 501.000
32.74473 457.000
32.78529 520.000
32.82585 466.000
32.86641 487.000
32.90697 577.000
32.94753 583.000
32.98809 559.000
33.02865 607.000
33.06921 661.000
33.10977 772.000
33.15033 767.000
33.19089 743.000
33.23145 627.000
33.27201 595.000
33.31257 567.000
33.35313 527.000
33.39369 542.000
33.43425 601.000
33.47482 619.000
33.51538 603.000
33.55594 600.000
33.59650 622.000
33.63706 729.000
33.67762 722.000
33.71818 687.000
33.75874 634.000
33.79930 516.000
33.83986 512.000
33.88042 523.000
33.92098 505.000
33.96154 488.000
34.00210 483.000
34.04266 426.000
34.08322 485.000
34.12378 484.000
34.16434 475.000
34.20490 485.000
34.24546 482.000
34.28602 453.000
34.32658 467.000
34.36714 449.000
34.40770 467.000
34.44826 449.000
34.48882 493.000
34.52938 471.000
34.56994 489.000
34.61050 536.000
34.65106 566.000
34.69162 565.000
34.73218 581.000
34.77274 562.000
34.81330 610.000
34.85386 684.000
34.89442 731.000
34.93498 774.000
34.97554 856.000
35.01610 878.000
35.05666 951.000
35.09722 849.000
35.13778 782.000
35.17834 803.000
35.21890 808.000
35.25946 818.000
35.30002 824.000
35.34058 781.000
35.38115 679.000
35.42171 611.000
35.46227 531.000
35.50283 469.000
35.54339 494.000
35.58395 492.000
35.62451 440.000
35.66507 445.000
35.70563 439.000
35.74619 464.000
35.78675 446.000
35.82731 485.000
35.86787 525.000
35.90843 591.000
35.94899 622.000
35.98955 650.000
36.03011 691.000
36.07067 743.000
36.11123 782.000
36.15179 834.000
36.19235 913.000
36.23291 919.000
36.27347 896.000
36.31403 879.000
36.35459 732.000
36.39515 680.000
36.43571 662.000
36.47627 630.000
36.51683 559.000
36.55739 547.000
36.59795 485.000
36.63851 503.000
36.67907 507.000
36.71963 543.000
36.76019 546.000
36.80075 471.000
36.84131 505.000
36.88187 468.000
36.92243 480.000
36.96299 472.000
37.00355 447.000
37.04411 452.000
37.08467 519.000
37.12523 577.000
37.16579 607.000
37.20635 669.000
37.24691 651.000
37.28748 697.000
37.32804 611.000
37.36860 577.000
37.40916 531.000
37.44972 497.000
37.49028 446.000
37.53084 477.000
37.57140 434.000
37.61196 426.000
37.65252 408.000
37.69308 462.000
37.73364 416.000
37.77420 459.000
37.81476 475.000
37.85532 519.000
37.89588 518.000
37.93644 585.000
37.97700 564.000
38.01756 595.000
38.05812 567.000
38.09868 497.000
38.13924 541.000
38.17980 550.000
38.22036 581.000
38.26092 626.000
38.30148 596.000
38.34204 625.000
38.38260 640.000
38.42316 612.000
38.46372 648.000
38.50428 626.000
38.54484 540.000
38.58540 507.000
38.62596 468.000
38.66652 520.000
38.70708 531.000
38.74764 545.000
38.78820 560.000
38.82876 595.000
38.86932 567.000
38.90988 691.000
38.95044 676.000
38.99100 726.000
39.03156 756.000
39.07212 713.000
39.11268 693.000
39.15324 585.000
39.19381 548.000
39.23437 565.000
39.27493 556.000
39.31549 493.000
39.35605 492.000
39.39661 527.000
39.43717 545.000
39.47773 568.000
39.51829 576.000
39.55885 575.000
39.59941 614.000
39.63997 558.000
39.68053 513.000
39.72109 465.000
39.76165 466.000
39.80221 497.000
39.84277 534.000
39.88333 516.000
39.92389 566.000
39.96445 516.000
40.00501 547.000
40.04557 507.000
40.08613 548.000
40.12669 565.000
40.16725 507.000
40.20781 581.000
40.24837 541.000
40.28893 624.000
40.32949 585.000
40.37005 725.000
40.41061 699.000
40.45117 847.000
40.49173 800.000
40.53229 895.000
40.57285 866.000
40.61341 751.000
40.65397 683.000
40.69453 681.000
40.73509 594.000
40.77565 520.000
40.81621 518.000
40.85677 489.000
40.89733 450.000
40.93789 504.000
40.97845 494.000
41.01901 459.000
41.05957 507.000
41.10014 535.000
41.14070 510.000
41.18126 538.000
41.22182 495.000
41.26238 494.000
41.30294 497.000
41.34350 507.000
41.38406 510.000
41.42462 484.000
41.46518 439.000
41.50574 436.000
41.54630 421.000
41.58686 443.000
41.62742 443.000
41.66798 454.000
41.70854 442.000
41.74910 464.000
41.78966 486.000
41.83022 399.000
41.87078 435.000
41.91134 428.000
41.95190 411.000
41.99246 382.000
42.03302 357.000
42.07358 392.000
42.11414 448.000
42.15470 414.000
42.19526 414.000
42.23582 427.000
42.27638 407.000
42.31694 458.000
42.35750 444.000
42.39806 453.000
42.43862 496.000
42.47918 477.000
42.51974 495.000
42.56030 495.000
42.60086 555.000
42.64142 500.000
42.68198 451.000
42.72254 522.000
42.76310 462.000
42.80366 434.000
42.84422 479.000
42.88478 462.000
42.92534 470.000
42.96590 455.000
43.00647 494.000
43.04703 503.000
43.08759 487.000
43.12815 504.000
43.16871 532.000
43.20927 555.000
43.24983 525.000
43.29039 556.000
43.33095 492.000
43.37151 497.000
43.41207 494.000
43.45263 486.000
43.49319 526.000
43.53375 533.000
43.57431 522.000
43.61487 536.000
43.65543 573.000
43.69599 545.000
43.73655 603.000
43.77711 541.000
43.81767 574.000
43.85823 529.000
43.89879 540.000
43.93935 528.000
43.97991 533.000
44.02047 472.000
44.06103 491.000
44.10159 458.000
44.14215 476.000
44.18271 521.000
44.22327 550.000
44.26383 533.000
44.30439 609.000
44.34495 623.000
44.38551 629.000
44.42607 611.000
44.46663 652.000
44.50719 657.000
44.54775 657.000
44.58831 605.000
44.62887 627.000
44.66943 614.000
44.70999 612.000
44.75055 604.000
44.79111 571.000
44.83167 613.000
44.87223 565.000
44.91280 533.000
44.95336 525.000
44.99392 531.000
45.03448 511.000
45.07504 485.000
45.11560 514.000
45.15616 532.000
45.19672 523.000
45.23728 528.000
45.27784 500.000
45.31840 541.000
45.35896 534.000
45.39952 546.000
45.44008 492.000
45.48064 523.000
45.52120 526.000
45.56176 560.000
45.60232 542.000
45.64288 502.000
45.68344 508.000
45.72400 519.000
45.76456 463.000
45.80512 491.000
45.84568 429.000
45.88624 483.000
45.92680 508.000
45.96736 452.000
46.00792 478.000
46.04848 489.000
46.08904 526.000
46.12960 496.000
46.17016 507.000
46.21072 540.000
46.25128 523.000
46.29184 552.000
46.33240 527.000
46.37296 590.000
46.41352 574.000
46.45408 596.000
46.49464 548.000
46.53520 613.000
46.57576 583.000
46.61632 597.000
46.65688 551.000
46.69744 537.000
46.73800 547.000
46.77856 459.000
46.81913 497.000
46.85969 479.000
46.90025 488.000
46.94081 485.000
46.98137 472.000
47.02193 469.000
47.06249 454.000
47.10305 440.000
47.14361 455.000
47.18417 460.000
47.22473 412.000
47.26529 508.000
47.30585 471.000
47.34641 479.000
47.38697 480.000
47.42753 509.000
47.46809 507.000
47.50865 508.000
47.54921 538.000
47.58977 502.000
47.63033 460.000
47.67089 482.000
47.71145 478.000
47.75201 461.000
47.79257 501.000
47.83313 496.000
47.87369 471.000
47.91425 481.000
47.95481 482.000
47.99537 489.000
48.03593 550.000
48.07649 482.000
48.11705 482.000
48.15761 488.000
48.19817 449.000
48.23873 441.000
48.27929 487.000
48.31985 437.000
48.36041 443.000
48.40097 491.000
48.44153 457.000
48.48209 453.000
48.52265 454.000
48.56321 459.000
48.60377 459.000
48.64433 393.000
48.68489 418.000
48.72546 431.000
48.76602 430.000
48.80658 460.000
48.84714 461.000
48.88770 460.000
48.92826 435.000
48.96882 457.000
49.00938 492.000
49.04994 466.000
49.09050 449.000
49.13106 451.000
49.17162 463.000
49.21218 425.000
49.25274 446.000
49.29330 424.000
49.33386 426.000
49.37442 404.000
49.41498 419.000
49.45554 401.000
49.49610 442.000
49.53666 407.000
49.57722 421.000
49.61778 436.000
49.65834 418.000
49.69890 406.000
49.73946 406.000
49.78002 400.000
49.82058 415.000
49.86114 449.000
49.90170 417.000
49.94226 411.000
49.98282 397.000
50.00310 406.000