File: Task01/nick/files/ESI_material_XRD/steady_state/crystal_size_analysis/Volumes_Ace/1908_RVR_40ul_mill_Ace.xy
5.00155 830.000
5.04211 824.000
5.08267 837.000
5.12323 778.000
5.16379 816.000
5.20435 759.000
5.24491 720.000
5.28547 716.000
5.32603 710.000
5.36659 626.000
5.40715 689.000
5.44771 641.000
5.48827 680.000
5.52883 639.000
5.56939 678.000
5.60995 592.000
5.65051 575.000
5.69107 651.000
5.73163 554.000
5.77219 639.000
5.81275 502.000
5.85331 508.000
5.89387 538.000
5.93443 518.000
5.97499 523.000
6.01555 467.000
6.05611 503.000
6.09667 481.000
6.13723 515.000
6.17779 466.000
6.21835 472.000
6.25891 527.000
6.29947 500.000
6.34003 577.000
6.38059 591.000
6.42115 605.000
6.46171 554.000
6.50227 463.000
6.54283 525.000
6.58339 487.000
6.62395 554.000
6.66451 640.000
6.70507 805.000
6.74564 980.000
6.78620 1138.000
6.82676 1123.000
6.86732 897.000
6.90788 575.000
6.94844 472.000
6.98900 409.000
7.02956 392.000
7.07012 371.000
7.11068 356.000
7.15124 337.000
7.19180 335.000
7.23236 369.000
7.27292 346.000
7.31348 333.000
7.35404 352.000
7.39460 352.000
7.43516 329.000
7.47572 337.000
7.51628 351.000
7.55684 360.000
7.59740 355.000
7.63796 324.000
7.67852 349.000
7.71908 322.000
7.75964 313.000
7.80020 305.000
7.84076 305.000
7.88132 335.000
7.92188 340.000
7.96244 343.000
8.00300 344.000
8.04356 331.000
8.08412 366.000
8.12468 397.000
8.16524 452.000
8.20580 538.000
8.24636 634.000
8.28692 858.000
8.32748 1126.000
8.36804 1273.000
8.40860 1097.000
8.44916 945.000
8.48972 957.000
8.53028 1221.000
8.57084 1647.000
8.61140 1990.000
8.65197 1791.000
8.69253 1237.000
8.73309 774.000
8.77365 578.000
8.81421 449.000
8.85477 462.000
8.89533 427.000
8.93589 388.000
8.97645 403.000
9.01701 351.000
9.05757 341.000
9.09813 342.000
9.13869 365.000
9.17925 377.000
9.21981 375.000
9.26037 422.000
9.30093 479.000
9.34149 624.000
9.38205 837.000
9.42261 1027.000
9.46317 1163.000
9.50373 1087.000
9.54429 717.000
9.58485 566.000
9.62541 544.000
9.66597 592.000
9.70653 687.000
9.74709 902.000
9.78765 1162.000
9.82821 1560.000
9.86877 1416.000
9.90933 953.000
9.94989 681.000
9.99045 522.000
10.03101 410.000
10.07157 403.000
10.11213 357.000
10.15269 355.000
10.19325 328.000
10.23381 335.000
10.27437 329.000
10.31493 351.000
10.35549 322.000
10.39605 361.000
10.43661 391.000
10.47717 381.000
10.51773 429.000
10.55830 407.000
10.59886 424.000
10.63942 354.000
10.67998 324.000
10.72054 383.000
10.76110 404.000
10.80166 498.000
10.84222 712.000
10.88278 936.000
10.92334 1085.000
10.96390 879.000
11.00446 643.000
11.04502 446.000
11.08558 362.000
11.12614 356.000
11.16670 324.000
11.20726 293.000
11.24782 319.000
11.28838 271.000
11.32894 295.000
11.36950 296.000
11.41006 256.000
11.45062 236.000
11.49118 293.000
11.53174 251.000
11.57230 252.000
11.61286 268.000
11.65342 303.000
11.69398 264.000
11.73454 250.000
11.77510 268.000
11.81566 263.000
11.85622 255.000
11.89678 294.000
11.93734 279.000
11.97790 277.000
12.01846 255.000
12.05902 232.000
12.09958 253.000
12.14014 274.000
12.18070 277.000
12.22126 273.000
12.26182 249.000
12.30238 278.000
12.34294 274.000
12.38350 315.000
12.42406 297.000
12.46463 319.000
12.50519 288.000
12.54575 273.000
12.58631 298.000
12.62687 284.000
12.66743 247.000
12.70799 271.000
12.74855 296.000
12.78911 278.000
12.82967 305.000
12.87023 303.000
12.91079 359.000
12.95135 358.000
12.99191 365.000
13.03247 390.000
13.07303 397.000
13.11359 453.000
13.15415 546.000
13.19471 566.000
13.23527 560.000
13.27583 610.000
13.31639 495.000
13.35695 509.000
13.39751 513.000
13.43807 489.000
13.47863 597.000
13.51919 699.000
13.55975 834.000
13.60031 980.000
13.64087 1108.000
13.68143 1283.000
13.72199 1170.000
13.76255 1062.000
13.80311 925.000
13.84367 726.000
13.88423 537.000
13.92479 414.000
13.96535 400.000
14.00591 351.000
14.04647 317.000
14.08703 344.000
14.12759 328.000
14.16815 326.000
14.20871 315.000
14.24927 281.000
14.28983 307.000
14.33039 350.000
14.37096 354.000
14.41152 369.000
14.45208 342.000
14.49264 381.000
14.53320 387.000
14.57376 429.000
14.61432 558.000
14.65488 656.000
14.69544 594.000
14.73600 571.000
14.77656 541.000
14.81712 557.000
14.85768 655.000
14.89824 610.000
14.93880 521.000
14.97936 462.000
15.01992 404.000
15.06048 368.000
15.10104 306.000
15.14160 370.000
15.18216 341.000
15.22272 333.000
15.26328 342.000
15.30384 364.000
15.34440 344.000
15.38496 421.000
15.42552 375.000
15.46608 448.000
15.50664 529.000
15.54720 586.000
15.58776 555.000
15.62832 617.000
15.66888 528.000
15.70944 530.000
15.75000 514.000
15.79056 523.000
15.83112 579.000
15.87168 726.000
15.91224 895.000
15.95280 1155.000
15.99336 1483.000
16.03392 1624.000
16.07448 1612.000
16.11504 1226.000
16.15560 991.000
16.19616 873.000
16.23672 841.000
16.27729 960.000
16.31785 1185.000
16.35841 1331.000
16.39897 1381.000
16.43953 1195.000
16.48009 1022.000
16.52065 1204.000
16.56121 1373.000
16.60177 1616.000
16.64233 1791.000
16.68289 1620.000
16.72345 1311.000
16.76401 1176.000
16.80457 1085.000
16.84513 858.000
16.88569 799.000
16.92625 785.000
16.96681 938.000
17.00737 1094.000
17.04793 1347.000
17.08849 1477.000
17.12905 1471.000
17.16961 1506.000
17.21017 1599.000
17.25073 1840.000
17.29129 2133.000
17.33185 2163.000
17.37241 1785.000
17.41297 1286.000
17.45353 978.000
17.49409 926.000
17.53465 1024.000
17.57521 1316.000
17.61577 1772.000
17.65633 2336.000
17.69689 3250.000
17.73745 3684.000
17.77801 3334.000
17.81857 2406.000
17.85913 1734.000
17.89969 1414.000
17.94025 1429.000
17.98081 1574.000
18.02137 1816.000
18.06193 2113.000
18.10249 2057.000
18.14305 2091.000
18.18362 2170.000
18.22418 2548.000
18.26474 3032.000
18.30530 3518.000
18.34586 3568.000
18.38642 3187.000
18.42698 2411.000
18.46754 1683.000
18.50810 1352.000
18.54866 1168.000
18.58922 1246.000
18.62978 1304.000
18.67034 1365.000
18.71090 1443.000
18.75146 1574.000
18.79202 1716.000
18.83258 1870.000
18.87314 1987.000
18.91370 1932.000
18.95426 1601.000
18.99482 1434.000
19.03538 1306.000
19.07594 1022.000
19.11650 889.000
19.15706 898.000
19.19762 981.000
19.23818 1062.000
19.27874 1097.000
19.31930 1274.000
19.35986 1482.000
19.40042 1754.000
19.44098 2072.000
19.48154 2223.000
19.52210 2017.000
19.56266 1839.000
19.60322 1603.000
19.64378 1625.000
19.68434 1872.000
19.72490 2029.000
19.76546 2154.000
19.80602 2197.000
19.84658 2332.000
19.88714 2466.000
19.92770 2693.000
19.96826 2851.000
20.00882 2899.000
20.04938 2601.000
20.08995 2229.000
20.13051 1874.000
20.17107 1770.000
20.21163 1778.000
20.25219 1924.000
20.29275 1977.000
20.33331 2079.000
20.37387 1895.000
20.41443 1711.000
20.45499 1566.000
20.49555 1772.000
20.53611 2186.000
20.57667 2349.000
20.61723 2405.000
20.65779 1983.000
20.69835 1480.000
20.73891 1152.000
20.77947 992.000
20.82003 946.000
20.86059 922.000
20.90115 993.000
20.94171 938.000
20.98227 925.000
21.02283 834.000
21.06339 920.000
21.10395 1005.000
21.14451 1188.000
21.18507 1273.000
21.22563 1531.000
21.26619 1843.000
21.30675 2196.000
21.34731 2772.000
21.38787 3104.000
21.42843 3573.000
21.46899 3766.000
21.50955 3835.000
21.55011 4187.000
21.59067 4226.000
21.63123 4393.000
21.67179 3925.000
21.71235 3042.000
21.75291 2167.000
21.79347 1583.000
21.83403 1249.000
21.87459 1134.000
21.91515 1079.000
21.95571 1130.000
21.99628 1137.000
22.03684 1191.000
22.07740 1363.000
22.11796 1518.000
22.15852 1543.000
22.19908 1395.000
22.23964 1146.000
22.28020 995.000
22.32076 919.000
22.36132 846.000
22.40188 921.000
22.44244 929.000
22.48300 951.000
22.52356 1049.000
22.56412 1006.000
22.60468 1053.000
22.64524 1139.000
22.68580 1132.000
22.72636 1154.000
22.76692 1152.000
22.80748 1005.000
22.84804 953.000
22.88860 847.000
22.92916 816.000
22.96972 833.000
23.01028 841.000
23.05084 826.000
23.09140 761.000
23.13196 733.000
23.17252 718.000
23.21308 777.000
23.25364 855.000
23.29420 1021.000
23.33476 1128.000
23.37532 1302.000
23.41588 1447.000
23.45644 1485.000
23.49700 1409.000
23.53756 1312.000
23.57812 1193.000
23.61868 1142.000
23.65924 1066.000
23.69980 974.000
23.74036 963.000
23.78092 989.000
23.82148 931.000
23.86204 1004.000
23.90261 1021.000
23.94317 1083.000
23.98373 1038.000
24.02429 1038.000
24.06485 1025.000
24.10541 1055.000
24.14597 1043.000
24.18653 1075.000
24.22709 997.000
24.26765 1004.000
24.30821 1044.000
24.34877 1052.000
24.38933 1162.000
24.42989 1103.000
24.47045 962.000
24.51101 860.000
24.55157 817.000
24.59213 873.000
24.63269 921.000
24.67325 1031.000
24.71381 1123.000
24.75437 1082.000
24.79493 977.000
24.83549 965.000
24.87605 879.000
24.91661 827.000
24.95717 726.000
24.99773 743.000
25.03829 871.000
25.07885 940.000
25.11941 1128.000
25.15997 1258.000
25.20053 1438.000
25.24109 1588.000
25.28165 1758.000
25.32221 1739.000
25.36277 1615.000
25.40333 1460.000
25.44389 1245.000
25.48445 1036.000
25.52501 885.000
25.56557 751.000
25.60613 775.000
25.64669 810.000
25.68725 870.000
25.72781 885.000
25.76837 1006.000
25.80893 932.000
25.84950 897.000
25.89006 978.000
25.93062 1029.000
25.97118 1140.000
26.01174 1240.000
26.05230 1328.000
26.09286 1289.000
26.13342 1325.000
26.17398 1204.000
26.21454 1140.000
26.25510 1095.000
26.29566 1086.000
26.33622 1074.000
26.37678 1060.000
26.41734 1134.000
26.45790 1084.000
26.49846 1042.000
26.53902 921.000
26.57958 897.000
26.62014 868.000
26.66070 745.000
26.70126 706.000
26.74182 763.000
26.78238 816.000
26.82294 841.000
26.86350 932.000
26.90406 897.000
26.94462 809.000
26.98518 828.000
27.02574 778.000
27.06630 781.000
27.10686 693.000
27.14742 630.000
27.18798 645.000
27.22854 674.000
27.26910 652.000
27.30966 670.000
27.35022 710.000
27.39078 745.000
27.43134 717.000
27.47190 729.000
27.51246 743.000
27.55302 629.000
27.59358 635.000
27.63414 560.000
27.67470 536.000
27.71526 473.000
27.75583 483.000
27.79639 453.000
27.83695 479.000
27.87751 468.000
27.91807 493.000
27.95863 486.000
27.99919 470.000
28.03975 505.000
28.08031 491.000
28.12087 514.000
28.16143 533.000
28.20199 483.000
28.24255 548.000
28.28311 623.000
28.32367 690.000
28.36423 743.000
28.40479 846.000
28.44535 968.000
28.48591 1119.000
28.52647 1214.000
28.56703 1293.000
28.60759 1224.000
28.64815 1073.000
28.68871 925.000
28.72927 904.000
28.76983 826.000
28.81039 710.000
28.85095 760.000
28.89151 639.000
28.93207 635.000
28.97263 586.000
29.01319 600.000
29.05375 642.000
29.09431 624.000
29.13487 602.000
29.17543 601.000
29.21599 543.000
29.25655 540.000
29.29711 587.000
29.33767 586.000
29.37823 572.000
29.41879 560.000
29.45935 552.000
29.49991 583.000
29.54047 646.000
29.58103 654.000
29.62159 709.000
29.66216 790.000
29.70272 942.000
29.74328 992.000
29.78384 1058.000
29.82440 1099.000
29.86496 993.000
29.90552 970.000
29.94608 948.000
29.98664 876.000
30.02720 913.000
30.06776 857.000
30.10832 899.000
30.14888 774.000
30.18944 741.000
30.23000 702.000
30.27056 677.000
30.31112 690.000
30.35168 627.000
30.39224 597.000
30.43280 551.000
30.47336 515.000
30.51392 478.000
30.55448 497.000
30.59504 466.000
30.63560 478.000
30.67616 483.000
30.71672 532.000
30.75728 485.000
30.79784 511.000
30.83840 548.000
30.87896 536.000
30.91952 565.000
30.96008 550.000
31.00064 538.000
31.04120 548.000
31.08176 602.000
31.12232 574.000
31.16288 653.000
31.20344 640.000
31.24400 678.000
31.28456 688.000
31.32512 707.000
31.36568 674.000
31.40624 681.000
31.44680 716.000
31.48736 748.000
31.52792 820.000
31.56849 820.000
31.60905 921.000
31.64961 897.000
31.69017 874.000
31.73073 813.000
31.77129 763.000
31.81185 711.000
31.85241 706.000
31.89297 661.000
31.93353 682.000
31.97409 687.000
32.01465 702.000
32.05521 664.000
32.09577 613.000
32.13633 634.000
32.17689 548.000
32.21745 517.000
32.25801 497.000
32.29857 526.000
32.33913 541.000
32.37969 504.000
32.42025 472.000
32.46081 456.000
32.50137 489.000
32.54193 478.000
32.58249 425.000
32.62305 465.000
32.66361 468.000
32.70417 450.000
32.74473 457.000
32.78529 458.000
32.82585 450.000
32.86641 473.000
32.90697 515.000
32.94753 498.000
32.98809 547.000
33.02865 541.000
33.06921 588.000
33.10977 552.000
33.15033 570.000
33.19089 587.000
33.23145 536.000
33.27201 539.000
33.31257 601.000
33.35313 523.000
33.39369 519.000
33.43425 520.000
33.47482 543.000
33.51538 521.000
33.55594 508.000
33.59650 524.000
33.63706 525.000
33.67762 506.000
33.71818 528.000
33.75874 476.000
33.79930 485.000
33.83986 487.000
33.88042 476.000
33.92098 449.000
33.96154 412.000
34.00210 459.000
34.04266 452.000
34.08322 457.000
34.12378 398.000
34.16434 491.000
34.20490 509.000
34.24546 457.000
34.28602 479.000
34.32658 462.000
34.36714 483.000
34.40770 504.000
34.44826 506.000
34.48882 525.000
34.52938 571.000
34.56994 559.000
34.61050 568.000
34.65106 566.000
34.69162 598.000
34.73218 574.000
34.77274 562.000
34.81330 585.000
34.85386 611.000
34.89442 673.000
34.93498 744.000
34.97554 668.000
35.01610 699.000
35.05666 689.000
35.09722 614.000
35.13778 657.000
35.17834 658.000
35.21890 653.000
35.25946 621.000
35.30002 616.000
35.34058 572.000
35.38115 570.000
35.42171 491.000
35.46227 500.000
35.50283 462.000
35.54339 506.000
35.58395 479.000
35.62451 422.000
35.66507 444.000
35.70563 407.000
35.74619 447.000
35.78675 412.000
35.82731 428.000
35.86787 506.000
35.90843 533.000
35.94899 464.000
35.98955 566.000
36.03011 637.000
36.07067 619.000
36.11123 614.000
36.15179 650.000
36.19235 713.000
36.23291 709.000
36.27347 707.000
36.31403 657.000
36.35459 626.000
36.39515 598.000
36.43571 578.000
36.47627 527.000
36.51683 514.000
36.55739 526.000
36.59795 547.000
36.63851 552.000
36.67907 534.000
36.71963 478.000
36.76019 502.000
36.80075 514.000
36.84131 478.000
36.88187 506.000
36.92243 460.000
36.96299 467.000
37.00355 479.000
37.04411 499.000
37.08467 485.000
37.12523 502.000
37.16579 516.000
37.20635 520.000
37.24691 524.000
37.28748 527.000
37.32804 518.000
37.36860 496.000
37.40916 472.000
37.44972 462.000
37.49028 440.000
37.53084 437.000
37.57140 427.000
37.61196 449.000
37.65252 427.000
37.69308 426.000
37.73364 404.000
37.77420 468.000
37.81476 487.000
37.85532 533.000
37.89588 529.000
37.93644 529.000
37.97700 555.000
38.01756 540.000
38.05812 491.000
38.09868 487.000
38.13924 489.000
38.17980 502.000
38.22036 518.000
38.26092 524.000
38.30148 547.000
38.34204 545.000
38.38260 544.000
38.42316 569.000
38.46372 528.000
38.50428 499.000
38.54484 474.000
38.58540 509.000
38.62596 457.000
38.66652 441.000
38.70708 446.000
38.74764 478.000
38.78820 490.000
38.82876 472.000
38.86932 512.000
38.90988 547.000
38.95044 572.000
38.99100 557.000
39.03156 565.000
39.07212 548.000
39.11268 541.000
39.15324 490.000
39.19381 526.000
39.23437 484.000
39.27493 473.000
39.31549 474.000
39.35605 474.000
39.39661 494.000
39.43717 512.000
39.47773 477.000
39.51829 515.000
39.55885 568.000
39.59941 538.000
39.63997 495.000
39.68053 510.000
39.72109 506.000
39.76165 472.000
39.80221 467.000
39.84277 503.000
39.88333 506.000
39.92389 470.000
39.96445 499.000
40.00501 528.000
40.04557 534.000
40.08613 520.000
40.12669 472.000
40.16725 543.000
40.20781 543.000
40.24837 563.000
40.28893 573.000
40.32949 625.000
40.37005 606.000
40.41061 625.000
40.45117 687.000
40.49173 710.000
40.53229 687.000
40.57285 636.000
40.61341 614.000
40.65397 581.000
40.69453 571.000
40.73509 525.000
40.77565 487.000
40.81621 528.000
40.85677 433.000
40.89733 458.000
40.93789 489.000
40.97845 481.000
41.01901 464.000
41.05957 460.000
41.10014 435.000
41.14070 495.000
41.18126 455.000
41.22182 492.000
41.26238 477.000
41.30294 488.000
41.34350 430.000
41.38406 497.000
41.42462 426.000
41.46518 447.000
41.50574 435.000
41.54630 420.000
41.58686 476.000
41.62742 488.000
41.66798 448.000
41.70854 489.000
41.74910 443.000
41.78966 468.000
41.83022 452.000
41.87078 422.000
41.91134 421.000
41.95190 380.000
41.99246 378.000
42.03302 423.000
42.07358 385.000
42.11414 391.000
42.15470 391.000
42.19526 406.000
42.23582 424.000
42.27638 405.000
42.31694 453.000
42.35750 424.000
42.39806 419.000
42.43862 445.000
42.47918 424.000
42.51974 453.000
42.56030 451.000
42.60086 456.000
42.64142 411.000
42.68198 431.000
42.72254 458.000
42.76310 439.000
42.80366 402.000
42.84422 453.000
42.88478 467.000
42.92534 419.000
42.96590 433.000
43.00647 446.000
43.04703 416.000
43.08759 494.000
43.12815 506.000
43.16871 492.000
43.20927 464.000
43.24983 478.000
43.29039 451.000
43.33095 474.000
43.37151 499.000
43.41207 510.000
43.45263 460.000
43.49319 526.000
43.53375 504.000
43.57431 465.000
43.61487 503.000
43.65543 481.000
43.69599 518.000
43.73655 522.000
43.77711 501.000
43.81767 519.000
43.85823 513.000
43.89879 503.000
43.93935 477.000
43.97991 495.000
44.02047 481.000
44.06103 472.000
44.10159 462.000
44.14215 479.000
44.18271 457.000
44.22327 533.000
44.26383 505.000
44.30439 530.000
44.34495 489.000
44.38551 506.000
44.42607 575.000
44.46663 562.000
44.50719 531.000
44.54775 504.000
44.58831 514.000
44.62887 536.000
44.66943 499.000
44.70999 489.000
44.75055 510.000
44.79111 522.000
44.83167 487.000
44.87223 478.000
44.91280 454.000
44.95336 526.000
44.99392 458.000
45.03448 478.000
45.07504 437.000
45.11560 460.000
45.15616 466.000
45.19672 441.000
45.23728 454.000
45.27784 462.000
45.31840 467.000
45.35896 473.000
45.39952 450.000
45.44008 502.000
45.48064 483.000
45.52120 501.000
45.56176 481.000
45.60232 507.000
45.64288 453.000
45.68344 444.000
45.72400 463.000
45.76456 448.000
45.80512 444.000
45.84568 435.000
45.88624 433.000
45.92680 444.000
45.96736 425.000
46.00792 423.000
46.04848 444.000
46.08904 424.000
46.12960 450.000
46.17016 481.000
46.21072 468.000
46.25128 480.000
46.29184 499.000
46.33240 506.000
46.37296 473.000
46.41352 492.000
46.45408 534.000
46.49464 510.000
46.53520 539.000
46.57576 524.000
46.61632 482.000
46.65688 451.000
46.69744 455.000
46.73800 447.000
46.77856 456.000
46.81913 432.000
46.85969 433.000
46.90025 442.000
46.94081 466.000
46.98137 437.000
47.02193 435.000
47.06249 443.000
47.10305 439.000
47.14361 421.000
47.18417 471.000
47.22473 481.000
47.26529 435.000
47.30585 445.000
47.34641 477.000
47.38697 500.000
47.42753 477.000
47.46809 414.000
47.50865 450.000
47.54921 464.000
47.58977 448.000
47.63033 438.000
47.67089 449.000
47.71145 458.000
47.75201 460.000
47.79257 446.000
47.83313 461.000
47.87369 459.000
47.91425 416.000
47.95481 449.000
47.99537 415.000
48.03593 471.000
48.07649 436.000
48.11705 421.000
48.15761 454.000
48.19817 397.000
48.23873 495.000
48.27929 419.000
48.31985 439.000
48.36041 407.000
48.40097 454.000
48.44153 430.000
48.48209 413.000
48.52265 441.000
48.56321 401.000
48.60377 400.000
48.64433 376.000
48.68489 400.000
48.72546 399.000
48.76602 404.000
48.80658 381.000
48.84714 394.000
48.88770 381.000
48.92826 420.000
48.96882 410.000
49.00938 396.000
49.04994 445.000
49.09050 410.000
49.13106 416.000
49.17162 419.000
49.21218 373.000
49.25274 386.000
49.29330 404.000
49.33386 393.000
49.37442 387.000
49.41498 387.000
49.45554 400.000
49.49610 415.000
49.53666 363.000
49.57722 369.000
49.61778 377.000
49.65834 381.000
49.69890 392.000
49.73946 405.000
49.78002 400.000
49.82058 407.000
49.86114 405.000
49.90170 366.000
49.94226 405.000
49.98282 349.000
50.00310 375.000