File: Task01/nick/files/ESI_material_XRD/steady_state/crystal_size_analysis/Volumes_Ace/1909_RVR_30ul_mill_Ace.xy
5.00155 726.000
5.04211 734.000
5.08267 718.000
5.12323 743.000
5.16379 670.000
5.20435 663.000
5.24491 651.000
5.28547 673.000
5.32603 584.000
5.36659 653.000
5.40715 633.000
5.44771 689.000
5.48827 597.000
5.52883 583.000
5.56939 631.000
5.60995 607.000
5.65051 588.000
5.69107 594.000
5.73163 585.000
5.77219 556.000
5.81275 521.000
5.85331 516.000
5.89387 552.000
5.93443 531.000
5.97499 481.000
6.01555 478.000
6.05611 490.000
6.09667 501.000
6.13723 472.000
6.17779 543.000
6.21835 482.000
6.25891 514.000
6.29947 571.000
6.34003 540.000
6.38059 641.000
6.42115 655.000
6.46171 689.000
6.50227 626.000
6.54283 707.000
6.58339 702.000
6.62395 1006.000
6.66451 1171.000
6.70507 1837.000
6.74564 2719.000
6.78620 3556.000
6.82676 4161.000
6.86732 3610.000
6.90788 2270.000
6.94844 1208.000
6.98900 774.000
7.02956 605.000
7.07012 543.000
7.11068 499.000
7.15124 534.000
7.19180 459.000
7.23236 451.000
7.27292 460.000
7.31348 474.000
7.35404 435.000
7.39460 456.000
7.43516 413.000
7.47572 463.000
7.51628 429.000
7.55684 440.000
7.59740 431.000
7.63796 451.000
7.67852 419.000
7.71908 420.000
7.75964 431.000
7.80020 418.000
7.84076 415.000
7.88132 441.000
7.92188 455.000
7.96244 409.000
8.00300 497.000
8.04356 515.000
8.08412 566.000
8.12468 660.000
8.16524 756.000
8.20580 1001.000
8.24636 1344.000
8.28692 1968.000
8.32748 3048.000
8.36804 4372.000
8.40860 4540.000
8.44916 3312.000
8.48972 1966.000
8.53028 1539.000
8.57084 1529.000
8.61140 1905.000
8.65197 2031.000
8.69253 1694.000
8.73309 1117.000
8.77365 799.000
8.81421 647.000
8.85477 555.000
8.89533 484.000
8.93589 505.000
8.97645 487.000
9.01701 506.000
9.05757 487.000
9.09813 470.000
9.13869 431.000
9.17925 426.000
9.21981 466.000
9.26037 500.000
9.30093 478.000
9.34149 554.000
9.38205 677.000
9.42261 898.000
9.46317 1121.000
9.50373 1150.000
9.54429 1057.000
9.58485 784.000
9.62541 608.000
9.66597 610.000
9.70653 622.000
9.74709 742.000
9.78765 1032.000
9.82821 1307.000
9.86877 1651.000
9.90933 1419.000
9.94989 990.000
9.99045 674.000
10.03101 567.000
10.07157 530.000
10.11213 512.000
10.15269 463.000
10.19325 483.000
10.23381 430.000
10.27437 432.000
10.31493 462.000
10.35549 429.000
10.39605 512.000
10.43661 525.000
10.47717 643.000
10.51773 764.000
10.55830 1018.000
10.59886 970.000
10.63942 798.000
10.67998 538.000
10.72054 541.000
10.76110 493.000
10.80166 510.000
10.84222 684.000
10.88278 802.000
10.92334 1062.000
10.96390 1176.000
11.00446 949.000
11.04502 681.000
11.08558 531.000
11.12614 431.000
11.16670 407.000
11.20726 448.000
11.24782 377.000
11.28838 377.000
11.32894 360.000
11.36950 395.000
11.41006 354.000
11.45062 353.000
11.49118 380.000
11.53174 377.000
11.57230 379.000
11.61286 340.000
11.65342 375.000
11.69398 402.000
11.73454 385.000
11.77510 371.000
11.81566 394.000
11.85622 368.000
11.89678 401.000
11.93734 364.000
11.97790 385.000
12.01846 394.000
12.05902 395.000
12.09958 376.000
12.14014 341.000
12.18070 379.000
12.22126 355.000
12.26182 388.000
12.30238 429.000
12.34294 398.000
12.38350 406.000
12.42406 414.000
12.46463 413.000
12.50519 378.000
12.54575 410.000
12.58631 383.000
12.62687 385.000
12.66743 370.000
12.70799 383.000
12.74855 400.000
12.78911 378.000
12.82967 412.000
12.87023 423.000
12.91079 428.000
12.95135 453.000
12.99191 484.000
13.03247 491.000
13.07303 523.000
13.11359 618.000
13.15415 712.000
13.19471 879.000
13.23527 892.000
13.27583 963.000
13.31639 1001.000
13.35695 1081.000
13.39751 984.000
13.43807 950.000
13.47863 1003.000
13.51919 1202.000
13.55975 1531.000
13.60031 1536.000
13.64087 1460.000
13.68143 1574.000
13.72199 1506.000
13.76255 1331.000
13.80311 1161.000
13.84367 961.000
13.88423 763.000
13.92479 552.000
13.96535 537.000
14.00591 464.000
14.04647 439.000
14.08703 441.000
14.12759 446.000
14.16815 461.000
14.20871 422.000
14.24927 450.000
14.28983 461.000
14.33039 469.000
14.37096 480.000
14.41152 508.000
14.45208 556.000
14.49264 589.000
14.53320 664.000
14.57376 807.000
14.61432 1279.000
14.65488 1634.000
14.69544 1925.000
14.73600 1635.000
14.77656 1148.000
14.81712 966.000
14.85768 1042.000
14.89824 1278.000
14.93880 1365.000
14.97936 1116.000
15.01992 869.000
15.06048 619.000
15.10104 556.000
15.14160 499.000
15.18216 428.000
15.22272 502.000
15.26328 474.000
15.30384 480.000
15.34440 443.000
15.38496 489.000
15.42552 461.000
15.46608 522.000
15.50664 528.000
15.54720 548.000
15.58776 646.000
15.62832 714.000
15.66888 711.000
15.70944 643.000
15.75000 648.000
15.79056 637.000
15.83112 620.000
15.87168 654.000
15.91224 680.000
15.95280 857.000
15.99336 1104.000
16.03392 1450.000
16.07448 1657.000
16.11504 1574.000
16.15560 1296.000
16.19616 1103.000
16.23672 1178.000
16.27729 1423.000
16.31785 2086.000
16.35841 2659.000
16.39897 3059.000
16.43953 2867.000
16.48009 2232.000
16.52065 1798.000
16.56121 1740.000
16.60177 2044.000
16.64233 2391.000
16.68289 2596.000
16.72345 2473.000
16.76401 2574.000
16.80457 2527.000
16.84513 2446.000
16.88569 1908.000
16.92625 1586.000
16.96681 1552.000
17.00737 1930.000
17.04793 2551.000
17.08849 3575.000
17.12905 3895.000
17.16961 3586.000
17.21017 2685.000
17.25073 2210.000
17.29129 2057.000
17.33185 2346.000
17.37241 2144.000
17.41297 1783.000
17.45353 1296.000
17.49409 1049.000
17.53465 1002.000
17.57521 1052.000
17.61577 1248.000
17.65633 1511.000
17.69689 2086.000
17.73745 2785.000
17.77801 3655.000
17.81857 3247.000
17.85913 2528.000
17.89969 2143.000
17.94025 2107.000
17.98081 2629.000
18.02137 3460.000
18.06193 4607.000
18.10249 5511.000
18.14305 5560.000
18.18362 4501.000
18.22418 3335.000
18.26474 2975.000
18.30530 2994.000
18.34586 3238.000
18.38642 3470.000
18.42698 3013.000
18.46754 2450.000
18.50810 1854.000
18.54866 1731.000
18.58922 1890.000
18.62978 2280.000
18.67034 2763.000
18.71090 3050.000
18.75146 2877.000
18.79202 2545.000
18.83258 2159.000
18.87314 2280.000
18.91370 2255.000
18.95426 2124.000
18.99482 1984.000
19.03538 1816.000
19.07594 1707.000
19.11650 1525.000
19.15706 1234.000
19.19762 1159.000
19.23818 1161.000
19.27874 1226.000
19.31930 1401.000
19.35986 1620.000
19.40042 2041.000
19.44098 2734.000
19.48154 3464.000
19.52210 4041.000
19.56266 3825.000
19.60322 3059.000
19.64378 2509.000
19.68434 2178.000
19.72490 2257.000
19.76546 2530.000
19.80602 2816.000
19.84658 3027.000
19.88714 3508.000
19.92770 4016.000
19.96826 4247.000
20.00882 3918.000
20.04938 3603.000
20.08995 3032.000
20.13051 2768.000
20.17107 2713.000
20.21163 2774.000
20.25219 2940.000
20.29275 3163.000
20.33331 3692.000
20.37387 4023.000
20.41443 3341.000
20.45499 2363.000
20.49555 1794.000
20.53611 1895.000
20.57667 2050.000
20.61723 2280.000
20.65779 2290.000
20.69835 1954.000
20.73891 1532.000
20.77947 1203.000
20.82003 1047.000
20.86059 1115.000
20.90115 1159.000
20.94171 1178.000
20.98227 1147.000
21.02283 1142.000
21.06339 1231.000
21.10395 1411.000
21.14451 1576.000
21.18507 1897.000
21.22563 2137.000
21.26619 2721.000
21.30675 3242.000
21.34731 4377.000
21.38787 5612.000
21.42843 6667.000
21.46899 7465.000
21.50955 8193.000
21.55011 8538.000
21.59067 8494.000
21.63123 8213.000
21.67179 7714.000
21.71235 6373.000
21.75291 4843.000
21.79347 3249.000
21.83403 2114.000
21.87459 1619.000
21.91515 1446.000
21.95571 1208.000
21.99628 1240.000
22.03684 1235.000
22.07740 1259.000
22.11796 1334.000
22.15852 1397.000
22.19908 1479.000
22.23964 1396.000
22.28020 1239.000
22.32076 1123.000
22.36132 1093.000
22.40188 1139.000
22.44244 1328.000
22.48300 1422.000
22.52356 1513.000
22.56412 1425.000
22.60468 1343.000
22.64524 1342.000
22.68580 1306.000
22.72636 1344.000
22.76692 1329.000
22.80748 1372.000
22.84804 1402.000
22.88860 1313.000
22.92916 1435.000
22.96972 1238.000
23.01028 1327.000
23.05084 1361.000
23.09140 1171.000
23.13196 1067.000
23.17252 997.000
23.21308 980.000
23.25364 1046.000
23.29420 1165.000
23.33476 1405.000
23.37532 1602.000
23.41588 1998.000
23.45644 2337.000
23.49700 2728.000
23.53756 2920.000
23.57812 2815.000
23.61868 2361.000
23.65924 2089.000
23.69980 1695.000
23.74036 1509.000
23.78092 1435.000
23.82148 1413.000
23.86204 1401.000
23.90261 1244.000
23.94317 1170.000
23.98373 1179.000
24.02429 1123.000
24.06485 1093.000
24.10541 1155.000
24.14597 1227.000
24.18653 1248.000
24.22709 1242.000
24.26765 1295.000
24.30821 1456.000
24.34877 1681.000
24.38933 1901.000
24.42989 2069.000
24.47045 1941.000
24.51101 1550.000
24.55157 1214.000
24.59213 1111.000
24.63269 1023.000
24.67325 1174.000
24.71381 1286.000
24.75437 1405.000
24.79493 1377.000
24.83549 1221.000
24.87605 1062.000
24.91661 963.000
24.95717 920.000
24.99773 931.000
25.03829 1054.000
25.07885 1169.000
25.11941 1360.000
25.15997 1554.000
25.20053 1680.000
25.24109 1925.000
25.28165 2008.000
25.32221 1984.000
25.36277 1860.000
25.40333 1796.000
25.44389 1655.000
25.48445 1551.000
25.52501 1403.000
25.56557 1208.000
25.60613 1042.000
25.64669 911.000
25.68725 944.000
25.72781 899.000
25.76837 955.000
25.80893 1043.000
25.84950 1106.000
25.89006 1106.000
25.93062 1196.000
25.97118 1377.000
26.01174 1570.000
26.05230 1725.000
26.09286 1818.000
26.13342 1911.000
26.17398 1690.000
26.21454 1425.000
26.25510 1311.000
26.29566 1246.000
26.33622 1296.000
26.37678 1214.000
26.41734 1351.000
26.45790 1378.000
26.49846 1430.000
26.53902 1503.000
26.57958 1465.000
26.62014 1393.000
26.66070 1244.000
26.70126 1272.000
26.74182 1163.000
26.78238 1181.000
26.82294 1208.000
26.86350 1267.000
26.90406 1355.000
26.94462 1592.000
26.98518 1457.000
27.02574 1450.000
27.06630 1312.000
27.10686 1278.000
27.14742 1228.000
27.18798 1094.000
27.22854 1087.000
27.26910 1008.000
27.30966 1040.000
27.35022 1087.000
27.39078 1117.000
27.43134 1156.000
27.47190 1203.000
27.51246 1208.000
27.55302 1121.000
27.59358 994.000
27.63414 833.000
27.67470 742.000
27.71526 622.000
27.75583 644.000
27.79639 595.000
27.83695 564.000
27.87751 587.000
27.91807 590.000
27.95863 577.000
27.99919 585.000
28.03975 566.000
28.08031 603.000
28.12087 583.000
28.16143 627.000
28.20199 638.000
28.24255 658.000
28.28311 756.000
28.32367 796.000
28.36423 846.000
28.40479 954.000
28.44535 1045.000
28.48591 1210.000
28.52647 1310.000
28.56703 1383.000
28.60759 1517.000
28.64815 1376.000
28.68871 1202.000
28.72927 1122.000
28.76983 999.000
28.81039 992.000
28.85095 900.000
28.89151 826.000
28.93207 839.000
28.97263 882.000
29.01319 896.000
29.05375 973.000
29.09431 1019.000
29.13487 995.000
29.17543 954.000
29.21599 828.000
29.25655 847.000
29.29711 803.000
29.33767 827.000
29.37823 850.000
29.41879 844.000
29.45935 770.000
29.49991 760.000
29.54047 774.000
29.58103 823.000
29.62159 894.000
29.66216 841.000
29.70272 980.000
29.74328 1073.000
29.78384 1148.000
29.82440 1238.000
29.86496 1172.000
29.90552 1145.000
29.94608 1112.000
29.98664 1118.000
30.02720 1106.000
30.06776 1027.000
30.10832 1011.000
30.14888 983.000
30.18944 865.000
30.23000 836.000
30.27056 856.000
30.31112 828.000
30.35168 829.000
30.39224 805.000
30.43280 857.000
30.47336 888.000
30.51392 728.000
30.55448 676.000
30.59504 637.000
30.63560 555.000
30.67616 571.000
30.71672 507.000
30.75728 617.000
30.79784 576.000
30.83840 528.000
30.87896 592.000
30.91952 605.000
30.96008 653.000
31.00064 630.000
31.04120 685.000
31.08176 782.000
31.12232 792.000
31.16288 759.000
31.20344 766.000
31.24400 802.000
31.28456 787.000
31.32512 715.000
31.36568 718.000
31.40624 698.000
31.44680 717.000
31.48736 731.000
31.52792 753.000
31.56849 800.000
31.60905 803.000
31.64961 868.000
31.69017 912.000
31.73073 859.000
31.77129 880.000
31.81185 823.000
31.85241 787.000
31.89297 775.000
31.93353 786.000
31.97409 775.000
32.01465 795.000
32.05521 794.000
32.09577 801.000
32.13633 714.000
32.17689 654.000
32.21745 687.000
32.25801 616.000
32.29857 577.000
32.33913 653.000
32.37969 635.000
32.42025 594.000
32.46081 582.000
32.50137 534.000
32.54193 509.000
32.58249 542.000
32.62305 555.000
32.66361 557.000
32.70417 560.000
32.74473 557.000
32.78529 598.000
32.82585 578.000
32.86641 568.000
32.90697 585.000
32.94753 581.000
32.98809 634.000
33.02865 635.000
33.06921 690.000
33.10977 739.000
33.15033 687.000
33.19089 692.000
33.23145 678.000
33.27201 701.000
33.31257 733.000
33.35313 672.000
33.39369 778.000
33.43425 710.000
33.47482 696.000
33.51538 585.000
33.55594 649.000
33.59650 639.000
33.63706 588.000
33.67762 592.000
33.71818 560.000
33.75874 545.000
33.79930 560.000
33.83986 539.000
33.88042 556.000
33.92098 578.000
33.96154 584.000
34.00210 567.000
34.04266 592.000
34.08322 602.000
34.12378 573.000
34.16434 632.000
34.20490 621.000
34.24546 663.000
34.28602 658.000
34.32658 666.000
34.36714 629.000
34.40770 702.000
34.44826 697.000
34.48882 767.000
34.52938 892.000
34.56994 968.000
34.61050 1008.000
34.65106 983.000
34.69162 848.000
34.73218 852.000
34.77274 823.000
34.81330 848.000
34.85386 799.000
34.89442 832.000
34.93498 870.000
34.97554 867.000
35.01610 930.000
35.05666 937.000
35.09722 768.000
35.13778 766.000
35.17834 770.000
35.21890 683.000
35.25946 679.000
35.30002 691.000
35.34058 666.000
35.38115 648.000
35.42171 573.000
35.46227 605.000
35.50283 550.000
35.54339 588.000
35.58395 577.000
35.62451 568.000
35.66507 569.000
35.70563 557.000
35.74619 473.000
35.78675 521.000
35.82731 494.000
35.86787 523.000
35.90843 515.000
35.94899 511.000
35.98955 514.000
36.03011 551.000
36.07067 605.000
36.11123 635.000
36.15179 661.000
36.19235 672.000
36.23291 724.000
36.27347 713.000
36.31403 723.000
36.35459 669.000
36.39515 713.000
36.43571 721.000
36.47627 688.000
36.51683 748.000
36.55739 666.000
36.59795 670.000
36.63851 704.000
36.67907 737.000
36.71963 715.000
36.76019 787.000
36.80075 748.000
36.84131 734.000
36.88187 718.000
36.92243 702.000
36.96299 623.000
37.00355 658.000
37.04411 644.000
37.08467 621.000
37.12523 645.000
37.16579 665.000
37.20635 619.000
37.24691 650.000
37.28748 661.000
37.32804 602.000
37.36860 607.000
37.40916 558.000
37.44972 575.000
37.49028 532.000
37.53084 533.000
37.57140 523.000
37.61196 545.000
37.65252 523.000
37.69308 543.000
37.73364 575.000
37.77420 612.000
37.81476 608.000
37.85532 586.000
37.89588 636.000
37.93644 665.000
37.97700 682.000
38.01756 681.000
38.05812 677.000
38.09868 698.000
38.13924 605.000
38.17980 607.000
38.22036 609.000
38.26092 568.000
38.30148 598.000
38.34204 573.000
38.38260 616.000
38.42316 603.000
38.46372 624.000
38.50428 634.000
38.54484 556.000
38.58540 536.000
38.62596 570.000
38.66652 524.000
38.70708 536.000
38.74764 541.000
38.78820 516.000
38.82876 483.000
38.86932 470.000
38.90988 542.000
38.95044 573.000
38.99100 535.000
39.03156 583.000
39.07212 588.000
39.11268 578.000
39.15324 610.000
39.19381 572.000
39.23437 594.000
39.27493 533.000
39.31549 542.000
39.35605 560.000
39.39661 548.000
39.43717 586.000
39.47773 586.000
39.51829 622.000
39.55885 667.000
39.59941 623.000
39.63997 693.000
39.68053 641.000
39.72109 618.000
39.76165 631.000
39.80221 593.000
39.84277 612.000
39.88333 598.000
39.92389 604.000
39.96445 627.000
40.00501 626.000
40.04557 610.000
40.08613 656.000
40.12669 681.000
40.16725 715.000
40.20781 750.000
40.24837 746.000
40.28893 713.000
40.32949 685.000
40.37005 740.000
40.41061 757.000
40.45117 739.000
40.49173 711.000
40.53229 764.000
40.57285 747.000
40.61341 673.000
40.65397 619.000
40.69453 599.000
40.73509 555.000
40.77565 552.000
40.81621 528.000
40.85677 510.000
40.89733 499.000
40.93789 567.000
40.97845 578.000
41.01901 555.000
41.05957 588.000
41.10014 531.000
41.14070 514.000
41.18126 567.000
41.22182 532.000
41.26238 566.000
41.30294 588.000
41.34350 610.000
41.38406 604.000
41.42462 595.000
41.46518 627.000
41.50574 615.000
41.54630 615.000
41.58686 614.000
41.62742 664.000
41.66798 637.000
41.70854 678.000
41.74910 674.000
41.78966 674.000
41.83022 646.000
41.87078 615.000
41.91134 622.000
41.95190 542.000
41.99246 503.000
42.03302 520.000
42.07358 467.000
42.11414 490.000
42.15470 430.000
42.19526 448.000
42.23582 494.000
42.27638 484.000
42.31694 490.000
42.35750 500.000
42.39806 505.000
42.43862 483.000
42.47918 457.000
42.51974 471.000
42.56030 460.000
42.60086 482.000
42.64142 488.000
42.68198 464.000
42.72254 474.000
42.76310 454.000
42.80366 499.000
42.84422 439.000
42.88478 447.000
42.92534 513.000
42.96590 516.000
43.00647 501.000
43.04703 507.000
43.08759 553.000
43.12815 527.000
43.16871 579.000
43.20927 578.000
43.24983 570.000
43.29039 629.000
43.33095 586.000
43.37151 621.000
43.41207 609.000
43.45263 620.000
43.49319 579.000
43.53375 598.000
43.57431 533.000
43.61487 647.000
43.65543 612.000
43.69599 646.000
43.73655 614.000
43.77711 640.000
43.81767 677.000
43.85823 645.000
43.89879 580.000
43.93935 662.000
43.97991 661.000
44.02047 662.000
44.06103 636.000
44.10159 590.000
44.14215 590.000
44.18271 591.000
44.22327 627.000
44.26383 591.000
44.30439 588.000
44.34495 587.000
44.38551 585.000
44.42607 564.000
44.46663 558.000
44.50719 558.000
44.54775 577.000
44.58831 526.000
44.62887 599.000
44.66943 543.000
44.70999 569.000
44.75055 558.000
44.79111 555.000
44.83167 556.000
44.87223 566.000
44.91280 516.000
44.95336 539.000
44.99392 576.000
45.03448 553.000
45.07504 540.000
45.11560 486.000
45.15616 512.000
45.19672 528.000
45.23728 547.000
45.27784 537.000
45.31840 525.000
45.35896 500.000
45.39952 499.000
45.44008 505.000
45.48064 520.000
45.52120 516.000
45.56176 553.000
45.60232 563.000
45.64288 580.000
45.68344 491.000
45.72400 501.000
45.76456 543.000
45.80512 546.000
45.84568 545.000
45.88624 511.000
45.92680 498.000
45.96736 495.000
46.00792 497.000
46.04848 503.000
46.08904 503.000
46.12960 523.000
46.17016 517.000
46.21072 515.000
46.25128 484.000
46.29184 548.000
46.33240 525.000
46.37296 555.000
46.41352 573.000
46.45408 568.000
46.49464 566.000
46.53520 581.000
46.57576 577.000
46.61632 601.000
46.65688 541.000
46.69744 563.000
46.73800 561.000
46.77856 532.000
46.81913 529.000
46.85969 508.000
46.90025 499.000
46.94081 516.000
46.98137 517.000
47.02193 502.000
47.06249 521.000
47.10305 516.000
47.14361 507.000
47.18417 536.000
47.22473 563.000
47.26529 501.000
47.30585 548.000
47.34641 565.000
47.38697 561.000
47.42753 565.000
47.46809 570.000
47.50865 548.000
47.54921 527.000
47.58977 517.000
47.63033 530.000
47.67089 481.000
47.71145 504.000
47.75201 500.000
47.79257 517.000
47.83313 492.000
47.87369 520.000
47.91425 498.000
47.95481 465.000
47.99537 486.000
48.03593 523.000
48.07649 505.000
48.11705 442.000
48.15761 447.000
48.19817 439.000
48.23873 430.000
48.27929 478.000
48.31985 422.000
48.36041 475.000
48.40097 473.000
48.44153 424.000
48.48209 457.000
48.52265 458.000
48.56321 439.000
48.60377 448.000
48.64433 416.000
48.68489 458.000
48.72546 453.000
48.76602 451.000
48.80658 454.000
48.84714 441.000
48.88770 427.000
48.92826 448.000
48.96882 437.000
49.00938 434.000
49.04994 465.000
49.09050 444.000
49.13106 447.000
49.17162 426.000
49.21218 450.000
49.25274 443.000
49.29330 443.000
49.33386 436.000
49.37442 462.000
49.41498 475.000
49.45554 415.000
49.49610 449.000
49.53666 432.000
49.57722 429.000
49.61778 434.000
49.65834 412.000
49.69890 444.000
49.73946 473.000
49.78002 441.000
49.82058 451.000
49.86114 458.000
49.90170 492.000
49.94226 440.000
49.98282 455.000
50.00310 439.000