File: Task01/nick/files/ESI_material_XRD/steady_state/crystal_size_analysis/Volumes_Ace/1911_RVR_20ul_mill_Ace.xy
5.00155 908.000
5.04211 828.000
5.08267 789.000
5.12323 815.000
5.16379 790.000
5.20435 735.000
5.24491 770.000
5.28547 726.000
5.32603 656.000
5.36659 727.000
5.40715 733.000
5.44771 698.000
5.48827 658.000
5.52883 625.000
5.56939 595.000
5.60995 610.000
5.65051 638.000
5.69107 606.000
5.73163 581.000
5.77219 568.000
5.81275 548.000
5.85331 535.000
5.89387 539.000
5.93443 534.000
5.97499 518.000
6.01555 508.000
6.05611 458.000
6.09667 490.000
6.13723 497.000
6.17779 480.000
6.21835 542.000
6.25891 551.000
6.29947 514.000
6.34003 517.000
6.38059 545.000
6.42115 515.000
6.46171 631.000
6.50227 668.000
6.54283 755.000
6.58339 1021.000
6.62395 1309.000
6.66451 1917.000
6.70507 2950.000
6.74564 4246.000
6.78620 4787.000
6.82676 4434.000
6.86732 2617.000
6.90788 1343.000
6.94844 768.000
6.98900 652.000
7.02956 517.000
7.07012 572.000
7.11068 491.000
7.15124 455.000
7.19180 444.000
7.23236 448.000
7.27292 433.000
7.31348 429.000
7.35404 413.000
7.39460 399.000
7.43516 452.000
7.47572 411.000
7.51628 400.000
7.55684 429.000
7.59740 426.000
7.63796 362.000
7.67852 408.000
7.71908 392.000
7.75964 398.000
7.80020 432.000
7.84076 420.000
7.88132 435.000
7.92188 426.000
7.96244 423.000
8.00300 412.000
8.04356 497.000
8.08412 632.000
8.12468 725.000
8.16524 1065.000
8.20580 1376.000
8.24636 2059.000
8.28692 3213.000
8.32748 4629.000
8.36804 4950.000
8.40860 3319.000
8.44916 1638.000
8.48972 955.000
8.53028 718.000
8.57084 618.000
8.61140 578.000
8.65197 553.000
8.69253 468.000
8.73309 429.000
8.77365 371.000
8.81421 419.000
8.85477 399.000
8.89533 372.000
8.93589 395.000
8.97645 381.000
9.01701 378.000
9.05757 334.000
9.09813 358.000
9.13869 365.000
9.17925 339.000
9.21981 326.000
9.26037 360.000
9.30093 382.000
9.34149 384.000
9.38205 367.000
9.42261 380.000
9.46317 384.000
9.50373 381.000
9.54429 374.000
9.58485 384.000
9.62541 359.000
9.66597 325.000
9.70653 331.000
9.74709 332.000
9.78765 401.000
9.82821 410.000
9.86877 370.000
9.90933 369.000
9.94989 340.000
9.99045 337.000
10.03101 346.000
10.07157 318.000
10.11213 299.000
10.15269 314.000
10.19325 357.000
10.23381 324.000
10.27437 336.000
10.31493 374.000
10.35549 410.000
10.39605 463.000
10.43661 586.000
10.47717 748.000
10.51773 878.000
10.55830 971.000
10.59886 726.000
10.63942 468.000
10.67998 400.000
10.72054 376.000
10.76110 343.000
10.80166 379.000
10.84222 345.000
10.88278 362.000
10.92334 364.000
10.96390 332.000
11.00446 330.000
11.04502 297.000
11.08558 330.000
11.12614 325.000
11.16670 305.000
11.20726 311.000
11.24782 310.000
11.28838 343.000
11.32894 282.000
11.36950 260.000
11.41006 259.000
11.45062 299.000
11.49118 352.000
11.53174 288.000
11.57230 302.000
11.61286 303.000
11.65342 304.000
11.69398 293.000
11.73454 292.000
11.77510 306.000
11.81566 275.000
11.85622 307.000
11.89678 287.000
11.93734 289.000
11.97790 290.000
12.01846 293.000
12.05902 290.000
12.09958 307.000
12.14014 288.000
12.18070 289.000
12.22126 307.000
12.26182 273.000
12.30238 272.000
12.34294 288.000
12.38350 307.000
12.42406 292.000
12.46463 287.000
12.50519 307.000
12.54575 314.000
12.58631 278.000
12.62687 307.000
12.66743 325.000
12.70799 316.000
12.74855 327.000
12.78911 342.000
12.82967 301.000
12.87023 315.000
12.91079 342.000
12.95135 343.000
12.99191 372.000
13.03247 369.000
13.07303 478.000
13.11359 549.000
13.15415 710.000
13.19471 715.000
13.23527 669.000
13.27583 729.000
13.31639 819.000
13.35695 882.000
13.39751 819.000
13.43807 848.000
13.47863 1099.000
13.51919 1346.000
13.55975 1176.000
13.60031 916.000
13.64087 761.000
13.68143 669.000
13.72199 516.000
13.76255 433.000
13.80311 427.000
13.84367 366.000
13.88423 364.000
13.92479 375.000
13.96535 338.000
14.00591 357.000
14.04647 335.000
14.08703 351.000
14.12759 355.000
14.16815 352.000
14.20871 360.000
14.24927 355.000
14.28983 347.000
14.33039 381.000
14.37096 395.000
14.41152 430.000
14.45208 494.000
14.49264 589.000
14.53320 817.000
14.57376 1082.000
14.61432 1586.000
14.65488 1835.000
14.69544 1539.000
14.73600 926.000
14.77656 804.000
14.81712 869.000
14.85768 1012.000
14.89824 1209.000
14.93880 996.000
14.97936 702.000
15.01992 532.000
15.06048 398.000
15.10104 401.000
15.14160 362.000
15.18216 385.000
15.22272 379.000
15.26328 382.000
15.30384 355.000
15.34440 341.000
15.38496 388.000
15.42552 371.000
15.46608 406.000
15.50664 387.000
15.54720 361.000
15.58776 371.000
15.62832 406.000
15.66888 355.000
15.70944 400.000
15.75000 413.000
15.79056 398.000
15.83112 363.000
15.87168 414.000
15.91224 445.000
15.95280 424.000
15.99336 471.000
16.03392 550.000
16.07448 543.000
16.11504 606.000
16.15560 754.000
16.19616 977.000
16.23672 1272.000
16.27729 1822.000
16.31785 2388.000
16.35841 2598.000
16.39897 2292.000
16.43953 1726.000
16.48009 1318.000
16.52065 1279.000
16.56121 1430.000
16.60177 1628.000
16.64233 1696.000
16.68289 1762.000
16.72345 2007.000
16.76401 2337.000
16.80457 2110.000
16.84513 1647.000
16.88569 1271.000
16.92625 1490.000
16.96681 1906.000
17.00737 2573.000
17.04793 3300.000
17.08849 3747.000
17.12905 3269.000
17.16961 2306.000
17.21017 1615.000
17.25073 1033.000
17.29129 821.000
17.33185 750.000
17.37241 682.000
17.41297 657.000
17.45353 682.000
17.49409 564.000
17.53465 597.000
17.57521 608.000
17.61577 710.000
17.65633 702.000
17.69689 755.000
17.73745 950.000
17.77801 921.000
17.81857 1142.000
17.85913 1315.000
17.89969 1737.000
17.94025 2343.000
17.98081 3279.000
18.02137 4634.000
18.06193 5300.000
18.10249 5211.000
18.14305 4103.000
18.18362 2671.000
18.22418 1791.000
18.26474 1309.000
18.30530 1088.000
18.34586 1012.000
18.38642 996.000
18.42698 1000.000
18.46754 1103.000
18.50810 1292.000
18.54866 1620.000
18.58922 2035.000
18.62978 2467.000
18.67034 2743.000
18.71090 2494.000
18.75146 2142.000
18.79202 1678.000
18.83258 1368.000
18.87314 1137.000
18.91370 1186.000
18.95426 1206.000
18.99482 1360.000
19.03538 1325.000
19.07594 1062.000
19.11650 964.000
19.15706 854.000
19.19762 787.000
19.23818 919.000
19.27874 1072.000
19.31930 1267.000
19.35986 1596.000
19.40042 2165.000
19.44098 2768.000
19.48154 3164.000
19.52210 3007.000
19.56266 2431.000
19.60322 1912.000
19.64378 1556.000
19.68434 1539.000
19.72490 1608.000
19.76546 1869.000
19.80602 2237.000
19.84658 2760.000
19.88714 3229.000
19.92770 3092.000
19.96826 2578.000
20.00882 2142.000
20.04938 1933.000
20.08995 1967.000
20.13051 2232.000
20.17107 2447.000
20.21163 2540.000
20.25219 2740.000
20.29275 3097.000
20.33331 3473.000
20.37387 2696.000
20.41443 1769.000
20.45499 1209.000
20.49555 971.000
20.53611 996.000
20.57667 971.000
20.61723 856.000
20.65779 793.000
20.69835 734.000
20.73891 738.000
20.77947 760.000
20.82003 714.000
20.86059 786.000
20.90115 824.000
20.94171 856.000
20.98227 913.000
21.02283 1024.000
21.06339 1198.000
21.10395 1390.000
21.14451 1714.000
21.18507 1993.000
21.22563 2536.000
21.26619 3262.000
21.30675 4204.000
21.34731 5427.000
21.38787 6360.000
21.42843 7097.000
21.46899 7819.000
21.50955 8101.000
21.55011 7957.000
21.59067 7287.000
21.63123 6270.000
21.67179 5033.000
21.71235 3718.000
21.75291 2608.000
21.79347 1733.000
21.83403 1314.000
21.87459 1019.000
21.91515 975.000
21.95571 855.000
21.99628 781.000
22.03684 798.000
22.07740 766.000
22.11796 717.000
22.15852 734.000
22.19908 821.000
22.23964 818.000
22.28020 858.000
22.32076 883.000
22.36132 997.000
22.40188 987.000
22.44244 1205.000
22.48300 1233.000
22.52356 1173.000
22.56412 1097.000
22.60468 989.000
22.64524 915.000
22.68580 927.000
22.72636 1012.000
22.76692 983.000
22.80748 1130.000
22.84804 1152.000
22.88860 1238.000
22.92916 1125.000
22.96972 1147.000
23.01028 1087.000
23.05084 978.000
23.09140 825.000
23.13196 815.000
23.17252 831.000
23.21308 840.000
23.25364 1034.000
23.29420 1219.000
23.33476 1468.000
23.37532 1776.000
23.41588 2196.000
23.45644 2440.000
23.49700 2636.000
23.53756 2617.000
23.57812 2176.000
23.61868 1840.000
23.65924 1515.000
23.69980 1315.000
23.74036 1268.000
23.78092 1149.000
23.82148 1070.000
23.86204 969.000
23.90261 876.000
23.94317 749.000
23.98373 755.000
24.02429 736.000
24.06485 719.000
24.10541 780.000
24.14597 839.000
24.18653 936.000
24.22709 1101.000
24.26765 1345.000
24.30821 1589.000
24.34877 1774.000
24.38933 1846.000
24.42989 1635.000
24.47045 1160.000
24.51101 1019.000
24.55157 846.000
24.59213 856.000
24.63269 887.000
24.67325 1019.000
24.71381 978.000
24.75437 1006.000
24.79493 875.000
24.83549 758.000
24.87605 744.000
24.91661 750.000
24.95717 778.000
24.99773 945.000
25.03829 1096.000
25.07885 1211.000
25.11941 1311.000
25.15997 1440.000
25.20053 1449.000
25.24109 1416.000
25.28165 1263.000
25.32221 1157.000
25.36277 1097.000
25.40333 1049.000
25.44389 1179.000
25.48445 1045.000
25.52501 905.000
25.56557 781.000
25.60613 701.000
25.64669 680.000
25.68725 657.000
25.72781 712.000
25.76837 715.000
25.80893 830.000
25.84950 907.000
25.89006 1039.000
25.93062 1223.000
25.97118 1299.000
26.01174 1389.000
26.05230 1329.000
26.09286 1306.000
26.13342 1186.000
26.17398 1026.000
26.21454 995.000
26.25510 892.000
26.29566 889.000
26.33622 971.000
26.37678 1015.000
26.41734 1121.000
26.45790 1198.000
26.49846 1290.000
26.53902 1316.000
26.57958 1325.000
26.62014 1181.000
26.66070 1089.000
26.70126 1157.000
26.74182 1039.000
26.78238 1128.000
26.82294 1177.000
26.86350 1239.000
26.90406 1358.000
26.94462 1453.000
26.98518 1349.000
27.02574 1285.000
27.06630 1195.000
27.10686 1046.000
27.14742 1016.000
27.18798 1042.000
27.22854 961.000
27.26910 888.000
27.30966 992.000
27.35022 1037.000
27.39078 1035.000
27.43134 1112.000
27.47190 1033.000
27.51246 964.000
27.55302 886.000
27.59358 697.000
27.63414 594.000
27.67470 532.000
27.71526 496.000
27.75583 474.000
27.79639 484.000
27.83695 436.000
27.87751 460.000
27.91807 492.000
27.95863 498.000
27.99919 456.000
28.03975 486.000
28.08031 457.000
28.12087 509.000
28.16143 568.000
28.20199 630.000
28.24255 687.000
28.28311 691.000
28.32367 783.000
28.36423 828.000
28.40479 931.000
28.44535 936.000
28.48591 969.000
28.52647 954.000
28.56703 946.000
28.60759 890.000
28.64815 770.000
28.68871 714.000
28.72927 649.000
28.76983 673.000
28.81039 746.000
28.85095 661.000
28.89151 765.000
28.93207 738.000
28.97263 853.000
29.01319 904.000
29.05375 908.000
29.09431 893.000
29.13487 845.000
29.17543 764.000
29.21599 736.000
29.25655 769.000
29.29711 813.000
29.33767 741.000
29.37823 763.000
29.41879 718.000
29.45935 737.000
29.49991 694.000
29.54047 788.000
29.58103 744.000
29.62159 766.000
29.66216 826.000
29.70272 883.000
29.74328 857.000
29.78384 898.000
29.82440 938.000
29.86496 885.000
29.90552 802.000
29.94608 895.000
29.98664 834.000
30.02720 818.000
30.06776 768.000
30.10832 659.000
30.14888 650.000
30.18944 610.000
30.23000 606.000
30.27056 645.000
30.31112 633.000
30.35168 711.000
30.39224 678.000
30.43280 700.000
30.47336 596.000
30.51392 579.000
30.55448 534.000
30.59504 461.000
30.63560 465.000
30.67616 439.000
30.71672 421.000
30.75728 428.000
30.79784 429.000
30.83840 486.000
30.87896 467.000
30.91952 525.000
30.96008 533.000
31.00064 572.000
31.04120 602.000
31.08176 645.000
31.12232 638.000
31.16288 653.000
31.20344 575.000
31.24400 528.000
31.28456 497.000
31.32512 500.000
31.36568 497.000
31.40624 455.000
31.44680 457.000
31.48736 472.000
31.52792 460.000
31.56849 537.000
31.60905 487.000
31.64961 520.000
31.69017 567.000
31.73073 566.000
31.77129 590.000
31.81185 596.000
31.85241 589.000
31.89297 575.000
31.93353 584.000
31.97409 623.000
32.01465 574.000
32.05521 570.000
32.09577 584.000
32.13633 557.000
32.17689 556.000
32.21745 532.000
32.25801 505.000
32.29857 464.000
32.33913 508.000
32.37969 441.000
32.42025 469.000
32.46081 386.000
32.50137 372.000
32.54193 412.000
32.58249 428.000
32.62305 420.000
32.66361 462.000
32.70417 482.000
32.74473 510.000
32.78529 474.000
32.82585 481.000
32.86641 541.000
32.90697 556.000
32.94753 571.000
32.98809 590.000
33.02865 596.000
33.06921 567.000
33.10977 574.000
33.15033 573.000
33.19089 549.000
33.23145 597.000
33.27201 653.000
33.31257 657.000
33.35313 676.000
33.39369 546.000
33.43425 500.000
33.47482 514.000
33.51538 466.000
33.55594 484.000
33.59650 441.000
33.63706 427.000
33.67762 460.000
33.71818 442.000
33.75874 447.000
33.79930 476.000
33.83986 499.000
33.88042 492.000
33.92098 502.000
33.96154 530.000
34.00210 565.000
34.04266 555.000
34.08322 550.000
34.12378 554.000
34.16434 591.000
34.20490 567.000
34.24546 598.000
34.28602 591.000
34.32658 666.000
34.36714 708.000
34.40770 702.000
34.44826 827.000
34.48882 965.000
34.52938 989.000
34.56994 1015.000
34.61050 936.000
34.65106 883.000
34.69162 818.000
34.73218 679.000
34.77274 716.000
34.81330 752.000
34.85386 729.000
34.89442 748.000
34.93498 813.000
34.97554 780.000
35.01610 687.000
35.05666 648.000
35.09722 585.000
35.13778 514.000
35.17834 495.000
35.21890 530.000
35.25946 468.000
35.30002 480.000
35.34058 510.000
35.38115 542.000
35.42171 523.000
35.46227 500.000
35.50283 509.000
35.54339 534.000
35.58395 514.000
35.62451 532.000
35.66507 506.000
35.70563 472.000
35.74619 451.000
35.78675 468.000
35.82731 460.000
35.86787 408.000
35.90843 416.000
35.94899 436.000
35.98955 427.000
36.03011 441.000
36.07067 485.000
36.11123 508.000
36.15179 507.000
36.19235 527.000
36.23291 512.000
36.27347 540.000
36.31403 527.000
36.35459 542.000
36.39515 561.000
36.43571 617.000
36.47627 585.000
36.51683 577.000
36.55739 629.000
36.59795 664.000
36.63851 715.000
36.67907 705.000
36.71963 731.000
36.76019 659.000
36.80075 679.000
36.84131 709.000
36.88187 675.000
36.92243 612.000
36.96299 592.000
37.00355 581.000
37.04411 550.000
37.08467 584.000
37.12523 535.000
37.16579 553.000
37.20635 558.000
37.24691 527.000
37.28748 513.000
37.32804 494.000
37.36860 449.000
37.40916 444.000
37.44972 463.000
37.49028 522.000
37.53084 437.000
37.57140 485.000
37.61196 499.000
37.65252 474.000
37.69308 489.000
37.73364 517.000
37.77420 504.000
37.81476 581.000
37.85532 611.000
37.89588 586.000
37.93644 627.000
37.97700 667.000
38.01756 594.000
38.05812 589.000
38.09868 539.000
38.13924 528.000
38.17980 477.000
38.22036 489.000
38.26092 498.000
38.30148 503.000
38.34204 499.000
38.38260 489.000
38.42316 502.000
38.46372 504.000
38.50428 450.000
38.54484 459.000
38.58540 473.000
38.62596 445.000
38.66652 442.000
38.70708 422.000
38.74764 418.000
38.78820 413.000
38.82876 422.000
38.86932 413.000
38.90988 402.000
38.95044 431.000
38.99100 420.000
39.03156 453.000
39.07212 438.000
39.11268 474.000
39.15324 461.000
39.19381 452.000
39.23437 460.000
39.27493 490.000
39.31549 470.000
39.35605 513.000
39.39661 539.000
39.43717 492.000
39.47773 520.000
39.51829 608.000
39.55885 534.000
39.59941 573.000
39.63997 591.000
39.68053 548.000
39.72109 559.000
39.76165 489.000
39.80221 541.000
39.84277 516.000
39.88333 502.000
39.92389 503.000
39.96445 601.000
40.00501 605.000
40.04557 641.000
40.08613 648.000
40.12669 685.000
40.16725 638.000
40.20781 665.000
40.24837 670.000
40.28893 580.000
40.32949 657.000
40.37005 649.000
40.41061 573.000
40.45117 562.000
40.49173 593.000
40.53229 531.000
40.57285 487.000
40.61341 500.000
40.65397 480.000
40.69453 434.000
40.73509 462.000
40.77565 473.000
40.81621 463.000
40.85677 455.000
40.89733 442.000
40.93789 472.000
40.97845 470.000
41.01901 453.000
41.05957 483.000
41.10014 468.000
41.14070 484.000
41.18126 508.000
41.22182 529.000
41.26238 507.000
41.30294 571.000
41.34350 597.000
41.38406 586.000
41.42462 574.000
41.46518 622.000
41.50574 636.000
41.54630 580.000
41.58686 574.000
41.62742 554.000
41.66798 639.000
41.70854 594.000
41.74910 671.000
41.78966 617.000
41.83022 604.000
41.87078 580.000
41.91134 537.000
41.95190 448.000
41.99246 420.000
42.03302 404.000
42.07358 450.000
42.11414 484.000
42.15470 443.000
42.19526 416.000
42.23582 442.000
42.27638 435.000
42.31694 417.000
42.35750 411.000
42.39806 415.000
42.43862 388.000
42.47918 387.000
42.51974 396.000
42.56030 379.000
42.60086 401.000
42.64142 390.000
42.68198 379.000
42.72254 379.000
42.76310 389.000
42.80366 413.000
42.84422 408.000
42.88478 432.000
42.92534 407.000
42.96590 445.000
43.00647 412.000
43.04703 419.000
43.08759 473.000
43.12815 484.000
43.16871 530.000
43.20927 499.000
43.24983 530.000
43.29039 583.000
43.33095 543.000
43.37151 570.000
43.41207 537.000
43.45263 562.000
43.49319 581.000
43.53375 542.000
43.57431 543.000
43.61487 543.000
43.65543 553.000
43.69599 514.000
43.73655 532.000
43.77711 535.000
43.81767 544.000
43.85823 611.000
43.89879 530.000
43.93935 592.000
43.97991 592.000
44.02047 556.000
44.06103 578.000
44.10159 541.000
44.14215 533.000
44.18271 568.000
44.22327 487.000
44.26383 522.000
44.30439 484.000
44.34495 455.000
44.38551 420.000
44.42607 445.000
44.46663 442.000
44.50719 420.000
44.54775 423.000
44.58831 453.000
44.62887 399.000
44.66943 485.000
44.70999 477.000
44.75055 473.000
44.79111 487.000
44.83167 455.000
44.87223 437.000
44.91280 454.000
44.95336 447.000
44.99392 471.000
45.03448 426.000
45.07504 456.000
45.11560 439.000
45.15616 405.000
45.19672 408.000
45.23728 421.000
45.27784 426.000
45.31840 439.000
45.35896 418.000
45.39952 462.000
45.44008 486.000
45.48064 434.000
45.52120 437.000
45.56176 457.000
45.60232 454.000
45.64288 427.000
45.68344 478.000
45.72400 455.000
45.76456 484.000
45.80512 426.000
45.84568 458.000
45.88624 450.000
45.92680 409.000
45.96736 442.000
46.00792 441.000
46.04848 445.000
46.08904 478.000
46.12960 410.000
46.17016 451.000
46.21072 491.000
46.25128 431.000
46.29184 446.000
46.33240 462.000
46.37296 501.000
46.41352 508.000
46.45408 488.000
46.49464 469.000
46.53520 460.000
46.57576 485.000
46.61632 501.000
46.65688 462.000
46.69744 482.000
46.73800 477.000
46.77856 478.000
46.81913 437.000
46.85969 403.000
46.90025 409.000
46.94081 416.000
46.98137 466.000
47.02193 424.000
47.06249 446.000
47.10305 488.000
47.14361 464.000
47.18417 439.000
47.22473 502.000
47.26529 549.000
47.30585 460.000
47.34641 503.000
47.38697 490.000
47.42753 538.000
47.46809 487.000
47.50865 476.000
47.54921 502.000
47.58977 464.000
47.63033 459.000
47.67089 451.000
47.71145 457.000
47.75201 441.000
47.79257 408.000
47.83313 393.000
47.87369 461.000
47.91425 463.000
47.95481 424.000
47.99537 419.000
48.03593 407.000
48.07649 383.000
48.11705 409.000
48.15761 375.000
48.19817 350.000
48.23873 380.000
48.27929 371.000
48.31985 400.000
48.36041 406.000
48.40097 391.000
48.44153 411.000
48.48209 424.000
48.52265 406.000
48.56321 462.000
48.60377 400.000
48.64433 403.000
48.68489 402.000
48.72546 365.000
48.76602 355.000
48.80658 345.000
48.84714 358.000
48.88770 336.000
48.92826 406.000
48.96882 372.000
49.00938 356.000
49.04994 390.000
49.09050 357.000
49.13106 380.000
49.17162 382.000
49.21218 379.000
49.25274 374.000
49.29330 390.000
49.33386 403.000
49.37442 396.000
49.41498 416.000
49.45554 381.000
49.49610 410.000
49.53666 425.000
49.57722 432.000
49.61778 415.000
49.65834 391.000
49.69890 408.000
49.73946 401.000
49.78002 405.000
49.82058 390.000
49.86114 398.000
49.90170 382.000
49.94226 390.000
49.98282 376.000
50.00310 373.000