File: Task01/nick/files/ESI_material_XRD/steady_state/crystal_size_analysis/Volumes_Ace/1964_RVR_50ul_mill_Ace_051120.xy
5.00155 866.000
5.04211 838.000
5.08267 837.000
5.12323 806.000
5.16379 778.000
5.20435 741.000
5.24491 768.000
5.28547 728.000
5.32603 702.000
5.36659 702.000
5.40715 687.000
5.44771 694.000
5.48827 689.000
5.52883 637.000
5.56939 632.000
5.60995 650.000
5.65051 680.000
5.69107 608.000
5.73163 586.000
5.77219 599.000
5.81275 594.000
5.85331 517.000
5.89387 561.000
5.93443 522.000
5.97499 550.000
6.01555 538.000
6.05611 521.000
6.09667 497.000
6.13723 557.000
6.17779 565.000
6.21835 569.000
6.25891 569.000
6.29947 669.000
6.34003 703.000
6.38059 766.000
6.42115 752.000
6.46171 601.000
6.50227 495.000
6.54283 445.000
6.58339 415.000
6.62395 413.000
6.66451 418.000
6.70507 440.000
6.74564 409.000
6.78620 423.000
6.82676 411.000
6.86732 404.000
6.90788 381.000
6.94844 418.000
6.98900 377.000
7.02956 339.000
7.07012 341.000
7.11068 393.000
7.15124 350.000
7.19180 369.000
7.23236 347.000
7.27292 332.000
7.31348 374.000
7.35404 329.000
7.39460 361.000
7.43516 323.000
7.47572 339.000
7.51628 332.000
7.55684 314.000
7.59740 315.000
7.63796 339.000
7.67852 342.000
7.71908 349.000
7.75964 307.000
7.80020 340.000
7.84076 344.000
7.88132 338.000
7.92188 312.000
7.96244 323.000
8.00300 329.000
8.04356 334.000
8.08412 301.000
8.12468 321.000
8.16524 359.000
8.20580 420.000
8.24636 387.000
8.28692 401.000
8.32748 514.000
8.36804 549.000
8.40860 667.000
8.44916 950.000
8.48972 1425.000
8.53028 2302.000
8.57084 3496.000
8.61140 4133.000
8.65197 3068.000
8.69253 1674.000
8.73309 904.000
8.77365 615.000
8.81421 524.000
8.85477 460.000
8.89533 457.000
8.93589 364.000
8.97645 394.000
9.01701 407.000
9.05757 362.000
9.09813 372.000
9.13869 383.000
9.17925 381.000
9.21981 465.000
9.26037 509.000
9.30093 640.000
9.34149 932.000
9.38205 1430.000
9.42261 1990.000
9.46317 2404.000
9.50373 1771.000
9.54429 991.000
9.58485 647.000
9.62541 688.000
9.66597 743.000
9.70653 1032.000
9.74709 1625.000
9.78765 2452.000
9.82821 2929.000
9.86877 2298.000
9.90933 1204.000
9.94989 722.000
9.99045 551.000
10.03101 502.000
10.07157 433.000
10.11213 354.000
10.15269 327.000
10.19325 360.000
10.23381 353.000
10.27437 367.000
10.31493 344.000
10.35549 416.000
10.39605 397.000
10.43661 410.000
10.47717 358.000
10.51773 329.000
10.55830 396.000
10.59886 366.000
10.63942 320.000
10.67998 398.000
10.72054 434.000
10.76110 554.000
10.80166 773.000
10.84222 1168.000
10.88278 1686.000
10.92334 1918.000
10.96390 1323.000
11.00446 682.000
11.04502 478.000
11.08558 377.000
11.12614 340.000
11.16670 365.000
11.20726 332.000
11.24782 315.000
11.28838 324.000
11.32894 302.000
11.36950 315.000
11.41006 306.000
11.45062 296.000
11.49118 287.000
11.53174 301.000
11.57230 321.000
11.61286 331.000
11.65342 306.000
11.69398 285.000
11.73454 296.000
11.77510 288.000
11.81566 274.000
11.85622 286.000
11.89678 276.000
11.93734 264.000
11.97790 237.000
12.01846 311.000
12.05902 271.000
12.09958 307.000
12.14014 318.000
12.18070 276.000
12.22126 286.000
12.26182 329.000
12.30238 352.000
12.34294 380.000
12.38350 322.000
12.42406 289.000
12.46463 285.000
12.50519 256.000
12.54575 300.000
12.58631 264.000
12.62687 279.000
12.66743 312.000
12.70799 297.000
12.74855 293.000
12.78911 300.000
12.82967 300.000
12.87023 378.000
12.91079 410.000
12.95135 404.000
12.99191 418.000
13.03247 354.000
13.07303 403.000
13.11359 394.000
13.15415 577.000
13.19471 611.000
13.23527 699.000
13.27583 622.000
13.31639 483.000
13.35695 367.000
13.39751 410.000
13.43807 434.000
13.47863 536.000
13.51919 693.000
13.55975 861.000
13.60031 1287.000
13.64087 1838.000
13.68143 1999.000
13.72199 1977.000
13.76255 1769.000
13.80311 1504.000
13.84367 938.000
13.88423 604.000
13.92479 427.000
13.96535 350.000
14.00591 322.000
14.04647 352.000
14.08703 324.000
14.12759 307.000
14.16815 353.000
14.20871 338.000
14.24927 346.000
14.28983 266.000
14.33039 314.000
14.37096 356.000
14.41152 303.000
14.45208 305.000
14.49264 274.000
14.53320 326.000
14.57376 338.000
14.61432 327.000
14.65488 338.000
14.69544 371.000
14.73600 463.000
14.77656 550.000
14.81712 635.000
14.85768 609.000
14.89824 550.000
14.93880 404.000
14.97936 367.000
15.01992 366.000
15.06048 344.000
15.10104 334.000
15.14160 341.000
15.18216 343.000
15.22272 364.000
15.26328 332.000
15.30384 336.000
15.34440 330.000
15.38496 407.000
15.42552 405.000
15.46608 575.000
15.50664 619.000
15.54720 733.000
15.58776 771.000
15.62832 753.000
15.66888 650.000
15.70944 562.000
15.75000 563.000
15.79056 557.000
15.83112 678.000
15.87168 860.000
15.91224 1289.000
15.95280 1813.000
15.99336 2379.000
16.03392 2977.000
16.07448 2656.000
16.11504 1718.000
16.15560 987.000
16.19616 695.000
16.23672 703.000
16.27729 790.000
16.31785 938.000
16.35841 1112.000
16.39897 1114.000
16.43953 1093.000
16.48009 1159.000
16.52065 1361.000
16.56121 1750.000
16.60177 2265.000
16.64233 2520.000
16.68289 1940.000
16.72345 1178.000
16.76401 798.000
16.80457 584.000
16.84513 582.000
16.88569 512.000
16.92625 505.000
16.96681 582.000
17.00737 617.000
17.04793 661.000
17.08849 842.000
17.12905 1005.000
17.16961 1537.000
17.21017 2130.000
17.25073 2974.000
17.29129 3547.000
17.33185 3434.000
17.37241 2284.000
17.41297 1368.000
17.45353 984.000
17.49409 982.000
17.53465 1334.000
17.57521 1918.000
17.61577 2730.000
17.65633 3926.000
17.69689 5306.000
17.73745 5820.000
17.77801 4336.000
17.81857 2388.000
17.85913 1523.000
17.89969 1256.000
17.94025 1047.000
17.98081 935.000
18.02137 961.000
18.06193 1094.000
18.10249 1374.000
18.14305 1724.000
18.18362 2558.000
18.22418 3540.000
18.26474 4715.000
18.30530 5361.000
18.34586 5648.000
18.38642 4717.000
18.42698 2846.000
18.46754 1521.000
18.50810 1005.000
18.54866 892.000
18.58922 852.000
18.62978 899.000
18.67034 1065.000
18.71090 1210.000
18.75146 1558.000
18.79202 2089.000
18.83258 2533.000
18.87314 2811.000
18.91370 2395.000
18.95426 1834.000
18.99482 1445.000
19.03538 1169.000
19.07594 926.000
19.11650 832.000
19.15706 874.000
19.19762 956.000
19.23818 974.000
19.27874 1239.000
19.31930 1385.000
19.35986 1625.000
19.40042 2051.000
19.44098 2234.000
19.48154 2308.000
19.52210 1929.000
19.56266 1560.000
19.60322 1606.000
19.64378 1786.000
19.68434 2190.000
19.72490 2653.000
19.76546 2591.000
19.80602 2213.000
19.84658 2052.000
19.88714 2577.000
19.92770 3086.000
19.96826 3689.000
20.00882 4165.000
20.04938 3460.000
20.08995 2392.000
20.13051 1718.000
20.17107 1455.000
20.21163 1481.000
20.25219 1480.000
20.29275 1737.000
20.33331 1780.000
20.37387 1598.000
20.41443 1549.000
20.45499 1844.000
20.49555 2449.000
20.53611 3025.000
20.57667 3538.000
20.61723 3351.000
20.65779 2329.000
20.69835 1484.000
20.73891 1051.000
20.77947 935.000
20.82003 949.000
20.86059 1078.000
20.90115 980.000
20.94171 921.000
20.98227 850.000
21.02283 732.000
21.06339 832.000
21.10395 874.000
21.14451 980.000
21.18507 1035.000
21.22563 1289.000
21.26619 1438.000
21.30675 1666.000
21.34731 2022.000
21.38787 2512.000
21.42843 2711.000
21.46899 2785.000
21.50955 2874.000
21.55011 3511.000
21.59067 4228.000
21.63123 4810.000
21.67179 4415.000
21.71235 3166.000
21.75291 1943.000
21.79347 1254.000
21.83403 1042.000
21.87459 1045.000
21.91515 1100.000
21.95571 1222.000
21.99628 1253.000
22.03684 1599.000
22.07740 1826.000
22.11796 2179.000
22.15852 2179.000
22.19908 1805.000
22.23964 1361.000
22.28020 915.000
22.32076 756.000
22.36132 720.000
22.40188 764.000
22.44244 789.000
22.48300 886.000
22.52356 997.000
22.56412 1047.000
22.60468 1210.000
22.64524 1290.000
22.68580 1463.000
22.72636 1338.000
22.76692 1224.000
22.80748 974.000
22.84804 817.000
22.88860 707.000
22.92916 698.000
22.96972 737.000
23.01028 821.000
23.05084 723.000
23.09140 709.000
23.13196 718.000
23.17252 676.000
23.21308 695.000
23.25364 878.000
23.29420 962.000
23.33476 1105.000
23.37532 1403.000
23.41588 1346.000
23.45644 1169.000
23.49700 1023.000
23.53756 867.000
23.57812 850.000
23.61868 941.000
23.65924 999.000
23.69980 891.000
23.74036 856.000
23.78092 867.000
23.82148 961.000
23.86204 1051.000
23.90261 1124.000
23.94317 1212.000
23.98373 1183.000
24.02429 1316.000
24.06485 1204.000
24.10541 1284.000
24.14597 1280.000
24.18653 1165.000
24.22709 925.000
24.26765 856.000
24.30821 839.000
24.34877 874.000
24.38933 927.000
24.42989 839.000
24.47045 711.000
24.51101 748.000
24.55157 741.000
24.59213 924.000
24.63269 1066.000
24.67325 1133.000
24.71381 1240.000
24.75437 1268.000
24.79493 1114.000
24.83549 936.000
24.87605 824.000
24.91661 716.000
24.95717 679.000
24.99773 652.000
25.03829 727.000
25.07885 825.000
25.11941 1074.000
25.15997 1367.000
25.20053 1650.000
25.24109 2110.000
25.28165 2254.000
25.32221 2399.000
25.36277 2046.000
25.40333 1542.000
25.44389 1300.000
25.48445 966.000
25.52501 850.000
25.56557 703.000
25.60613 799.000
25.64669 845.000
25.68725 956.000
25.72781 1125.000
25.76837 1189.000
25.80893 1073.000
25.84950 1083.000
25.89006 951.000
25.93062 1002.000
25.97118 1172.000
26.01174 1309.000
26.05230 1507.000
26.09286 1593.000
26.13342 1413.000
26.17398 1266.000
26.21454 1114.000
26.25510 1142.000
26.29566 1232.000
26.33622 1146.000
26.37678 1131.000
26.41734 1095.000
26.45790 1103.000
26.49846 947.000
26.53902 797.000
26.57958 719.000
26.62014 564.000
26.66070 564.000
26.70126 605.000
26.74182 626.000
26.78238 721.000
26.82294 791.000
26.86350 859.000
26.90406 800.000
26.94462 727.000
26.98518 592.000
27.02574 463.000
27.06630 478.000
27.10686 505.000
27.14742 473.000
27.18798 538.000
27.22854 564.000
27.26910 600.000
27.30966 613.000
27.35022 581.000
27.39078 593.000
27.43134 625.000
27.47190 663.000
27.51246 614.000
27.55302 604.000
27.59358 478.000
27.63414 466.000
27.67470 414.000
27.71526 456.000
27.75583 419.000
27.79639 469.000
27.83695 486.000
27.87751 434.000
27.91807 447.000
27.95863 523.000
27.99919 454.000
28.03975 460.000
28.08031 438.000
28.12087 425.000
28.16143 406.000
28.20199 472.000
28.24255 493.000
28.28311 518.000
28.32367 657.000
28.36423 811.000
28.40479 971.000
28.44535 1192.000
28.48591 1451.000
28.52647 1617.000
28.56703 1494.000
28.60759 1425.000
28.64815 1268.000
28.68871 1068.000
28.72927 1019.000
28.76983 917.000
28.81039 724.000
28.85095 627.000
28.89151 497.000
28.93207 490.000
28.97263 431.000
29.01319 431.000
29.05375 485.000
29.09431 523.000
29.13487 485.000
29.17543 527.000
29.21599 474.000
29.25655 503.000
29.29711 387.000
29.33767 369.000
29.37823 375.000
29.41879 423.000
29.45935 471.000
29.49991 500.000
29.54047 569.000
29.58103 658.000
29.62159 800.000
29.66216 926.000
29.70272 1120.000
29.74328 1173.000
29.78384 1177.000
29.82440 1145.000
29.86496 1054.000
29.90552 1084.000
29.94608 1000.000
29.98664 1006.000
30.02720 1092.000
30.06776 1035.000
30.10832 919.000
30.14888 939.000
30.18944 829.000
30.23000 729.000
30.27056 717.000
30.31112 652.000
30.35168 582.000
30.39224 568.000
30.43280 501.000
30.47336 458.000
30.51392 449.000
30.55448 431.000
30.59504 465.000
30.63560 456.000
30.67616 454.000
30.71672 536.000
30.75728 561.000
30.79784 572.000
30.83840 603.000
30.87896 565.000
30.91952 556.000
30.96008 528.000
31.00064 507.000
31.04120 542.000
31.08176 566.000
31.12232 587.000
31.16288 614.000
31.20344 694.000
31.24400 743.000
31.28456 798.000
31.32512 836.000
31.36568 785.000
31.40624 854.000
31.44680 843.000
31.48736 924.000
31.52792 1132.000
31.56849 1198.000
31.60905 1265.000
31.64961 1202.000
31.69017 1093.000
31.73073 912.000
31.77129 819.000
31.81185 749.000
31.85241 671.000
31.89297 702.000
31.93353 731.000
31.97409 815.000
32.01465 762.000
32.05521 776.000
32.09577 656.000
32.13633 578.000
32.17689 491.000
32.21745 529.000
32.25801 509.000
32.29857 562.000
32.33913 559.000
32.37969 552.000
32.42025 527.000
32.46081 473.000
32.50137 438.000
32.54193 463.000
32.58249 442.000
32.62305 432.000
32.66361 461.000
32.70417 414.000
32.74473 412.000
32.78529 402.000
32.82585 429.000
32.86641 426.000
32.90697 468.000
32.94753 447.000
32.98809 554.000
33.02865 581.000
33.06921 604.000
33.10977 649.000
33.15033 604.000
33.19089 528.000
33.23145 518.000
33.27201 489.000
33.31257 432.000
33.35313 466.000
33.39369 477.000
33.43425 512.000
33.47482 513.000
33.51538 559.000
33.55594 636.000
33.59650 638.000
33.63706 628.000
33.67762 644.000
33.71818 614.000
33.75874 482.000
33.79930 458.000
33.83986 426.000
33.88042 461.000
33.92098 414.000
33.96154 392.000
34.00210 389.000
34.04266 412.000
34.08322 416.000
34.12378 446.000
34.16434 424.000
34.20490 417.000
34.24546 380.000
34.28602 379.000
34.32658 346.000
34.36714 335.000
34.40770 346.000
34.44826 340.000
34.48882 339.000
34.52938 424.000
34.56994 418.000
34.61050 425.000
34.65106 486.000
34.69162 463.000
34.73218 473.000
34.77274 499.000
34.81330 562.000
34.85386 640.000
34.89442 663.000
34.93498 763.000
34.97554 763.000
35.01610 746.000
35.05666 784.000
35.09722 725.000
35.13778 696.000
35.17834 707.000
35.21890 702.000
35.25946 715.000
35.30002 679.000
35.34058 594.000
35.38115 518.000
35.42171 463.000
35.46227 487.000
35.50283 451.000
35.54339 411.000
35.58395 398.000
35.62451 419.000
35.66507 394.000
35.70563 417.000
35.74619 431.000
35.78675 473.000
35.82731 483.000
35.86787 531.000
35.90843 556.000
35.94899 540.000
35.98955 614.000
36.03011 686.000
36.07067 763.000
36.11123 832.000
36.15179 859.000
36.19235 866.000
36.23291 820.000
36.27347 804.000
36.31403 705.000
36.35459 660.000
36.39515 621.000
36.43571 524.000
36.47627 495.000
36.51683 490.000
36.55739 462.000
36.59795 478.000
36.63851 462.000
36.67907 452.000
36.71963 474.000
36.76019 421.000
36.80075 432.000
36.84131 389.000
36.88187 415.000
36.92243 392.000
36.96299 387.000
37.00355 411.000
37.04411 434.000
37.08467 481.000
37.12523 538.000
37.16579 583.000
37.20635 578.000
37.24691 605.000
37.28748 539.000
37.32804 550.000
37.36860 500.000
37.40916 503.000
37.44972 410.000
37.49028 359.000
37.53084 375.000
37.57140 386.000
37.61196 377.000
37.65252 392.000
37.69308 363.000
37.73364 414.000
37.77420 434.000
37.81476 473.000
37.85532 460.000
37.89588 529.000
37.93644 502.000
37.97700 498.000
38.01756 455.000
38.05812 482.000
38.09868 434.000
38.13924 473.000
38.17980 505.000
38.22036 574.000
38.26092 563.000
38.30148 588.000
38.34204 601.000
38.38260 599.000
38.42316 615.000
38.46372 604.000
38.50428 536.000
38.54484 495.000
38.58540 433.000
38.62596 449.000
38.66652 483.000
38.70708 457.000
38.74764 457.000
38.78820 513.000
38.82876 544.000
38.86932 623.000
38.90988 592.000
38.95044 669.000
38.99100 703.000
39.03156 711.000
39.07212 670.000
39.11268 616.000
39.15324 489.000
39.19381 461.000
39.23437 429.000
39.27493 430.000
39.31549 481.000
39.35605 438.000
39.39661 443.000
39.43717 478.000
39.47773 534.000
39.51829 528.000
39.55885 528.000
39.59941 513.000
39.63997 440.000
39.68053 437.000
39.72109 473.000
39.76165 456.000
39.80221 446.000
39.84277 463.000
39.88333 482.000
39.92389 484.000
39.96445 513.000
40.00501 491.000
40.04557 454.000
40.08613 509.000
40.12669 464.000
40.16725 527.000
40.20781 516.000
40.24837 565.000
40.28893 583.000
40.32949 641.000
40.37005 673.000
40.41061 768.000
40.45117 773.000
40.49173 721.000
40.53229 796.000
40.57285 771.000
40.61341 660.000
40.65397 664.000
40.69453 614.000
40.73509 531.000
40.77565 488.000
40.81621 493.000
40.85677 417.000
40.89733 421.000
40.93789 472.000
40.97845 432.000
41.01901 455.000
41.05957 479.000
41.10014 500.000
41.14070 495.000
41.18126 399.000
41.22182 420.000
41.26238 463.000
41.30294 413.000
41.34350 401.000
41.38406 413.000
41.42462 421.000
41.46518 374.000
41.50574 359.000
41.54630 334.000
41.58686 346.000
41.62742 388.000
41.66798 394.000
41.70854 403.000
41.74910 407.000
41.78966 391.000
41.83022 374.000
41.87078 364.000
41.91134 358.000
41.95190 351.000
41.99246 361.000
42.03302 329.000
42.07358 338.000
42.11414 361.000
42.15470 366.000
42.19526 350.000
42.23582 359.000
42.27638 408.000
42.31694 424.000
42.35750 430.000
42.39806 426.000
42.43862 482.000
42.47918 480.000
42.51974 491.000
42.56030 486.000
42.60086 483.000
42.64142 426.000
42.68198 449.000
42.72254 432.000
42.76310 407.000
42.80366 408.000
42.84422 455.000
42.88478 391.000
42.92534 420.000
42.96590 427.000
43.00647 461.000
43.04703 483.000
43.08759 505.000
43.12815 471.000
43.16871 526.000
43.20927 512.000
43.24983 499.000
43.29039 483.000
43.33095 467.000
43.37151 472.000
43.41207 452.000
43.45263 452.000
43.49319 446.000
43.53375 466.000
43.57431 526.000
43.61487 498.000
43.65543 520.000
43.69599 483.000
43.73655 514.000
43.77711 470.000
43.81767 439.000
43.85823 440.000
43.89879 434.000
43.93935 384.000
43.97991 420.000
44.02047 434.000
44.06103 419.000
44.10159 461.000
44.14215 478.000
44.18271 510.000
44.22327 538.000
44.26383 488.000
44.30439 601.000
44.34495 580.000
44.38551 626.000
44.42607 603.000
44.46663 621.000
44.50719 635.000
44.54775 599.000
44.58831 603.000
44.62887 606.000
44.66943 547.000
44.70999 605.000
44.75055 546.000
44.79111 530.000
44.83167 495.000
44.87223 502.000
44.91280 441.000
44.95336 497.000
44.99392 488.000
45.03448 437.000
45.07504 479.000
45.11560 438.000
45.15616 482.000
45.19672 478.000
45.23728 455.000
45.27784 446.000
45.31840 469.000
45.35896 490.000
45.39952 501.000
45.44008 513.000
45.48064 499.000
45.52120 512.000
45.56176 463.000
45.60232 475.000
45.64288 480.000
45.68344 466.000
45.72400 431.000
45.76456 405.000
45.80512 442.000
45.84568 461.000
45.88624 429.000
45.92680 414.000
45.96736 421.000
46.00792 418.000
46.04848 447.000
46.08904 439.000
46.12960 503.000
46.17016 437.000
46.21072 488.000
46.25128 525.000
46.29184 485.000
46.33240 510.000
46.37296 502.000
46.41352 533.000
46.45408 558.000
46.49464 503.000
46.53520 526.000
46.57576 519.000
46.61632 572.000
46.65688 474.000
46.69744 447.000
46.73800 471.000
46.77856 421.000
46.81913 440.000
46.85969 415.000
46.90025 454.000
46.94081 406.000
46.98137 491.000
47.02193 438.000
47.06249 442.000
47.10305 464.000
47.14361 400.000
47.18417 446.000
47.22473 445.000
47.26529 434.000
47.30585 467.000
47.34641 468.000
47.38697 472.000
47.42753 462.000
47.46809 468.000
47.50865 462.000
47.54921 418.000
47.58977 470.000
47.63033 476.000
47.67089 442.000
47.71145 406.000
47.75201 423.000
47.79257 492.000
47.83313 454.000
47.87369 448.000
47.91425 480.000
47.95481 448.000
47.99537 461.000
48.03593 459.000
48.07649 457.000
48.11705 411.000
48.15761 411.000
48.19817 421.000
48.23873 460.000
48.27929 429.000
48.31985 459.000
48.36041 488.000
48.40097 443.000
48.44153 449.000
48.48209 387.000
48.52265 414.000
48.56321 426.000
48.60377 388.000
48.64433 423.000
48.68489 451.000
48.72546 409.000
48.76602 396.000
48.80658 440.000
48.84714 394.000
48.88770 435.000
48.92826 467.000
48.96882 457.000
49.00938 441.000
49.04994 419.000
49.09050 432.000
49.13106 477.000
49.17162 404.000
49.21218 448.000
49.25274 418.000
49.29330 417.000
49.33386 401.000
49.37442 397.000
49.41498 400.000
49.45554 357.000
49.49610 360.000
49.53666 366.000
49.57722 376.000
49.61778 376.000
49.65834 368.000
49.69890 427.000
49.73946 405.000
49.78002 387.000
49.82058 436.000
49.86114 427.000
49.90170 369.000
49.94226 393.000
49.98282 372.000
50.00310 394.000