File: Task01/nick/files/ESI_material_XRD/steady_state/crystal_size_analysis/Volumes_IPA/RVR_IPA_40uL.xy
4.00155 2198.000
4.04211 1970.000
4.08267 1961.000
4.12323 1817.000
4.16379 1801.000
4.20435 1747.000
4.24491 1661.000
4.28547 1598.000
4.32603 1510.000
4.36659 1321.000
4.40715 1308.000
4.44771 1316.000
4.48827 1200.000
4.52883 1245.000
4.56939 1180.000
4.60995 1147.000
4.65051 1119.000
4.69107 1052.000
4.73163 1031.000
4.77219 968.000
4.81275 981.000
4.85331 979.000
4.89387 944.000
4.93443 899.000
4.97499 925.000
5.01555 848.000
5.05611 899.000
5.09667 875.000
5.13723 786.000
5.17779 829.000
5.21835 820.000
5.25891 748.000
5.29947 838.000
5.34003 769.000
5.38059 727.000
5.42115 734.000
5.46171 651.000
5.50227 692.000
5.54283 640.000
5.58339 618.000
5.62395 603.000
5.66451 622.000
5.70507 578.000
5.74564 588.000
5.78620 552.000
5.82676 613.000
5.86732 550.000
5.90788 526.000
5.94844 530.000
5.98900 563.000
6.02956 487.000
6.07012 525.000
6.11068 520.000
6.15124 532.000
6.19180 531.000
6.23236 586.000
6.27292 621.000
6.31348 663.000
6.35404 750.000
6.39460 930.000
6.43516 908.000
6.47572 660.000
6.51628 570.000
6.55684 467.000
6.59740 435.000
6.63796 468.000
6.67852 396.000
6.71908 419.000
6.75964 455.000
6.80020 452.000
6.84076 441.000
6.88132 400.000
6.92188 417.000
6.96244 360.000
7.00300 409.000
7.04356 413.000
7.08412 410.000
7.12468 394.000
7.16524 375.000
7.20580 379.000
7.24636 371.000
7.28692 357.000
7.32748 366.000
7.36804 363.000
7.40860 342.000
7.44916 345.000
7.48972 362.000
7.53028 372.000
7.57084 335.000
7.61140 356.000
7.65197 385.000
7.69253 379.000
7.73309 335.000
7.77365 371.000
7.81421 342.000
7.85477 352.000
7.89533 388.000
7.93589 339.000
7.97645 379.000
8.01701 331.000
8.05757 333.000
8.09813 371.000
8.13869 391.000
8.17925 396.000
8.21981 412.000
8.26037 468.000
8.30093 444.000
8.34149 504.000
8.38205 622.000
8.42261 817.000
8.46317 1082.000
8.50373 1720.000
8.54429 2897.000
8.58485 4581.000
8.62541 5653.000
8.66597 4527.000
8.70653 2640.000
8.74709 1360.000
8.78765 833.000
8.82821 658.000
8.86877 595.000
8.90933 560.000
8.94989 527.000
8.99045 489.000
9.03101 448.000
9.07157 457.000
9.11213 419.000
9.15269 486.000
9.19325 511.000
9.23381 546.000
9.27437 613.000
9.31493 771.000
9.35549 1089.000
9.39605 1812.000
9.43661 2824.000
9.47717 3328.000
9.51773 2743.000
9.55830 1704.000
9.59886 1083.000
9.63942 796.000
9.67998 889.000
9.72054 1222.000
9.76110 1953.000
9.80166 3021.000
9.84222 3948.000
9.88278 3417.000
9.92334 1989.000
9.96390 1118.000
10.00446 709.000
10.04502 681.000
10.08558 551.000
10.12614 489.000
10.16670 468.000
10.20726 428.000
10.24782 402.000
10.28838 392.000
10.32894 427.000
10.36950 480.000
10.41006 470.000
10.45062 516.000
10.49118 458.000
10.53174 382.000
10.57230 444.000
10.61286 356.000
10.65342 432.000
10.69398 413.000
10.73454 455.000
10.77510 537.000
10.81566 792.000
10.85622 1240.000
10.89678 2024.000
10.93734 2387.000
10.97790 1832.000
11.01846 1065.000
11.05902 675.000
11.09958 493.000
11.14014 373.000
11.18070 420.000
11.22126 397.000
11.26182 371.000
11.30238 364.000
11.34294 308.000
11.38350 354.000
11.42406 380.000
11.46463 323.000
11.50519 342.000
11.54575 332.000
11.58631 328.000
11.62687 330.000
11.66743 341.000
11.70799 288.000
11.74855 332.000
11.78911 319.000
11.82967 363.000
11.87023 314.000
11.91079 328.000
11.95135 346.000
11.99191 324.000
12.03247 340.000
12.07303 279.000
12.11359 329.000
12.15415 327.000
12.19471 308.000
12.23527 347.000
12.27583 356.000
12.31639 401.000
12.35695 401.000
12.39751 422.000
12.43807 390.000
12.47863 335.000
12.51919 345.000
12.55975 313.000
12.60031 284.000
12.64087 349.000
12.68143 312.000
12.72199 335.000
12.76255 324.000
12.80311 312.000
12.84367 394.000
12.88423 419.000
12.92479 441.000
12.96535 517.000
13.00591 528.000
13.04647 495.000
13.08703 414.000
13.12759 500.000
13.16815 612.000
13.20871 839.000
13.24927 918.000
13.28983 789.000
13.33039 582.000
13.37096 547.000
13.41152 500.000
13.45208 479.000
13.49264 587.000
13.53320 747.000
13.57376 990.000
13.61432 1500.000
13.65488 2232.000
13.69544 2601.000
13.73600 2548.000
13.77656 2490.000
13.81712 2199.000
13.85768 1429.000
13.89824 896.000
13.93880 589.000
13.97936 465.000
14.01992 460.000
14.06048 391.000
14.10104 401.000
14.14160 343.000
14.18216 376.000
14.22272 366.000
14.26328 355.000
14.30384 357.000
14.34440 399.000
14.38496 348.000
14.42552 400.000
14.46608 361.000
14.50664 369.000
14.54720 391.000
14.58776 389.000
14.62832 374.000
14.66888 401.000
14.70944 422.000
14.75000 517.000
14.79056 638.000
14.83112 777.000
14.87168 885.000
14.91224 756.000
14.95280 588.000
14.99336 449.000
15.03392 441.000
15.07448 420.000
15.11504 416.000
15.15560 405.000
15.19616 396.000
15.23672 402.000
15.27729 352.000
15.31785 405.000
15.35841 416.000
15.39897 421.000
15.43953 488.000
15.48009 546.000
15.52065 714.000
15.56121 898.000
15.60177 988.000
15.64233 1035.000
15.68289 887.000
15.72345 832.000
15.76401 698.000
15.80457 694.000
15.84513 718.000
15.88569 850.000
15.92625 1376.000
15.96681 2143.000
16.00737 3290.000
16.04793 4271.000
16.08849 3933.000
16.12905 2619.000
16.16961 1581.000
16.21017 1070.000
16.25073 902.000
16.29129 931.000
16.33185 1167.000
16.37241 1335.000
16.41297 1366.000
16.45353 1371.000
16.49409 1323.000
16.53465 1552.000
16.57521 2058.000
16.61577 3068.000
16.65633 3631.000
16.69689 3044.000
16.73745 1977.000
16.77801 1142.000
16.81857 860.000
16.85913 771.000
16.89969 673.000
16.94025 703.000
16.98081 622.000
17.02137 733.000
17.06193 731.000
17.10249 891.000
17.14305 1134.000
17.18362 1596.000
17.22418 2268.000
17.26474 3602.000
17.30530 4907.000
17.34586 4759.000
17.38642 3503.000
17.42698 2113.000
17.46754 1386.000
17.50810 1124.000
17.54866 1245.000
17.58922 1711.000
17.62978 2529.000
17.67034 4139.000
17.71090 6291.000
17.75146 7662.000
17.79202 6211.000
17.83258 3636.000
17.87314 2114.000
17.91370 1693.000
17.95426 1371.000
17.99482 1196.000
18.03538 1140.000
18.07594 1149.000
18.11650 1316.000
18.15706 1770.000
18.19762 2618.000
18.23818 3915.000
18.27874 5429.000
18.31930 6916.000
18.35986 8052.000
18.40042 6760.000
18.44098 4499.000
18.48154 2463.000
18.52210 1499.000
18.56266 1184.000
18.60322 994.000
18.64378 967.000
18.68434 1026.000
18.72490 1316.000
18.76546 1771.000
18.80602 2367.000
18.84658 3302.000
18.88714 3832.000
18.92770 3465.000
18.96826 2810.000
19.00882 2033.000
19.04938 1640.000
19.08995 1265.000
19.13051 1136.000
19.17107 1054.000
19.21163 1119.000
19.25219 1299.000
19.29275 1427.000
19.33331 1594.000
19.37387 1936.000
19.41443 2629.000
19.45499 3246.000
19.49555 3321.000
19.53611 2733.000
19.57667 2089.000
19.61723 1813.000
19.65779 2161.000
19.69835 2650.000
19.73891 3460.000
19.77947 3334.000
19.82003 2914.000
19.86059 2520.000
19.90115 2790.000
19.94171 3712.000
19.98227 5054.000
20.02283 5909.000
20.06339 4924.000
20.10395 3360.000
20.14451 2441.000
20.18507 1870.000
20.22563 1732.000
20.26619 1828.000
20.30675 2215.000
20.34731 2177.000
20.38787 1867.000
20.42843 1712.000
20.46899 1999.000
20.50955 2643.000
20.55011 3654.000
20.59067 4587.000
20.63123 4530.000
20.67179 3419.000
20.71235 2141.000
20.75291 1532.000
20.79347 1222.000
20.83403 1304.000
20.87459 1388.000
20.91515 1368.000
20.95571 1200.000
20.99628 1070.000
21.03684 1027.000
21.07740 1005.000
21.11796 1044.000
21.15852 1156.000
21.19908 1293.000
21.23964 1520.000
21.28020 1665.000
21.32076 1911.000
21.36132 2424.000
21.40188 3134.000
21.44244 3579.000
21.48300 3495.000
21.52356 3635.000
21.56412 4010.000
21.60468 5371.000
21.64524 6666.000
21.68580 6265.000
21.72636 4798.000
21.76692 2929.000
21.80748 1895.000
21.84804 1501.000
21.88860 1357.000
21.92916 1362.000
21.96972 1478.000
22.01028 1607.000
22.05084 1806.000
22.09140 2266.000
22.13196 2957.000
22.17252 3181.000
22.21308 2670.000
22.25364 1901.000
22.29420 1319.000
22.33476 1006.000
22.37532 972.000
22.41588 928.000
22.45644 1007.000
22.49700 1114.000
22.53756 1204.000
22.57812 1282.000
22.61868 1343.000
22.65924 1662.000
22.69980 1970.000
22.74036 1953.000
22.78092 1663.000
22.82148 1307.000
22.86204 1011.000
22.90261 873.000
22.94317 853.000
22.98373 1025.000
23.02429 1062.000
23.06485 1023.000
23.10541 971.000
23.14597 890.000
23.18653 815.000
23.22709 831.000
23.26765 1002.000
23.30821 1188.000
23.34877 1479.000
23.38933 1791.000
23.42989 1918.000
23.47045 1654.000
23.51101 1347.000
23.55157 1163.000
23.59213 1117.000
23.63269 1219.000
23.67325 1255.000
23.71381 1168.000
23.75437 1094.000
23.79493 1025.000
23.83549 1169.000
23.87605 1345.000
23.91661 1489.000
23.95717 1585.000
23.99773 1609.000
24.03829 1623.000
24.07885 1668.000
24.11941 1771.000
24.15997 1756.000
24.20053 1607.000
24.24109 1302.000
24.28165 1085.000
24.32221 1037.000
24.36277 1110.000
24.40333 1192.000
24.44389 1154.000
24.48445 1007.000
24.52501 967.000
24.56557 869.000
24.60613 994.000
24.64669 1238.000
24.68725 1605.000
24.72781 1737.000
24.76837 1620.000
24.80893 1456.000
24.84950 1247.000
24.89006 1085.000
24.93062 991.000
24.97118 873.000
25.01174 753.000
25.05230 818.000
25.09286 931.000
25.13342 1136.000
25.17398 1542.000
25.21454 1882.000
25.25510 2569.000
25.29566 3207.000
25.33622 3274.000
25.37678 2868.000
25.41734 2226.000
25.45790 1787.000
25.49846 1350.000
25.53902 1117.000
25.57958 932.000
25.62014 883.000
25.66070 1007.000
25.70126 1251.000
25.74182 1465.000
25.78238 1487.000
25.82294 1406.000
25.86350 1302.000
25.90406 1152.000
25.94462 1167.000
25.98518 1380.000
26.02574 1531.000
26.06630 1952.000
26.10686 2123.000
26.14742 1939.000
26.18798 1516.000
26.22854 1429.000
26.26910 1555.000
26.30966 1489.000
26.35022 1476.000
26.39078 1462.000
26.43134 1404.000
26.47190 1474.000
26.51246 1330.000
26.55302 1078.000
26.59358 885.000
26.63414 753.000
26.67470 747.000
26.71526 782.000
26.75583 747.000
26.79639 892.000
26.83695 958.000
26.87751 1201.000
26.91807 1113.000
26.95863 1003.000
26.99919 796.000
27.03975 710.000
27.08031 643.000
27.12087 583.000
27.16143 628.000
27.20199 594.000
27.24255 685.000
27.28311 687.000
27.32367 721.000
27.36423 782.000
27.40479 739.000
27.44535 767.000
27.48591 806.000
27.52647 900.000
27.56703 751.000
27.60759 675.000
27.64815 608.000
27.68871 552.000
27.72927 537.000
27.76983 560.000
27.81039 545.000
27.85095 573.000
27.89151 588.000
27.93207 597.000
27.97263 609.000
28.01319 559.000
28.05375 598.000
28.09431 594.000
28.13487 537.000
28.17543 554.000
28.21599 568.000
28.25655 540.000
28.29711 628.000
28.33767 699.000
28.37823 893.000
28.41879 1054.000
28.45935 1301.000
28.49991 1611.000
28.54047 1992.000
28.58103 2040.000
28.62159 1916.000
28.66216 1647.000
28.70272 1547.000
28.74328 1479.000
28.78384 1185.000
28.82440 1009.000
28.86496 804.000
28.90552 616.000
28.94608 570.000
28.98664 586.000
29.02720 570.000
29.06776 561.000
29.10832 645.000
29.14888 614.000
29.18944 651.000
29.23000 626.000
29.27056 597.000
29.31112 577.000
29.35168 523.000
29.39224 477.000
29.43280 502.000
29.47336 522.000
29.51392 601.000
29.55448 645.000
29.59504 758.000
29.63560 812.000
29.67616 1057.000
29.71672 1257.000
29.75728 1448.000
29.79784 1564.000
29.83840 1503.000
29.87896 1375.000
29.91952 1252.000
29.96008 1311.000
30.00064 1321.000
30.04120 1322.000
30.08176 1315.000
30.12232 1230.000
30.16288 1162.000
30.20344 1066.000
30.24400 1009.000
30.28456 947.000
30.32512 869.000
30.36568 809.000
30.40624 736.000
30.44680 650.000
30.48736 565.000
30.52792 513.000
30.56849 541.000
30.60905 531.000
30.64961 592.000
30.69017 627.000
30.73073 661.000
30.77129 702.000
30.81185 691.000
30.85241 761.000
30.89297 792.000
30.93353 779.000
30.97409 683.000
31.01465 736.000
31.05521 658.000
31.09577 627.000
31.13633 715.000
31.17689 751.000
31.21745 821.000
31.25801 865.000
31.29857 1003.000
31.33913 1003.000
31.37969 993.000
31.42025 960.000
31.46081 997.000
31.50137 1081.000
31.54193 1343.000
31.58249 1507.000
31.62305 1565.000
31.66361 1589.000
31.70417 1403.000
31.74473 1223.000
31.78529 1111.000
31.82585 921.000
31.86641 914.000
31.90697 897.000
31.94753 924.000
31.98809 976.000
32.02865 1014.000
32.06921 987.000
32.10977 857.000
32.15033 746.000
32.19089 635.000
32.23145 597.000
32.27201 672.000
32.31257 648.000
32.35313 749.000
32.39369 703.000
32.43425 657.000
32.47482 595.000
32.51538 575.000
32.55594 581.000
32.59650 542.000
32.63706 592.000
32.67762 559.000
32.71818 515.000
32.75874 533.000
32.79930 506.000
32.83986 522.000
32.88042 507.000
32.92098 530.000
32.96154 524.000
33.00210 659.000
33.04266 705.000
33.08322 755.000
33.12378 861.000
33.16434 752.000
33.20490 760.000
33.24546 712.000
33.28602 608.000
33.32658 556.000
33.36714 543.000
33.40770 583.000
33.44826 635.000
33.48882 710.000
33.52938 683.000
33.56994 766.000
33.61050 758.000
33.65106 787.000
33.69162 811.000
33.73218 697.000
33.77274 668.000
33.81330 624.000
33.85386 562.000
33.89442 531.000
33.93498 505.000
33.97554 479.000
34.01610 485.000
34.05666 475.000
34.09722 476.000
34.13778 515.000
34.17834 529.000
34.21890 490.000
34.25946 503.000
34.30002 427.000
34.34058 451.000
34.38115 408.000
34.42171 453.000
34.46227 436.000
34.50283 440.000
34.54339 478.000
34.58395 518.000
34.62451 550.000
34.66507 560.000
34.70563 655.000
34.74619 620.000
34.78675 642.000
34.82731 686.000
34.86787 751.000
34.90843 804.000
34.94899 927.000
34.98955 948.000
35.03011 1027.000
35.07067 994.000
35.11123 879.000
35.15179 895.000
35.19235 925.000
35.23291 889.000
35.27347 947.000
35.31403 889.000
35.35459 796.000
35.39515 653.000
35.43571 624.000
35.47627 552.000
35.51683 541.000
35.55739 543.000
35.59795 495.000
35.63851 509.000
35.67907 486.000
35.71963 470.000
35.76019 528.000
35.80075 535.000
35.84131 607.000
35.88187 595.000
35.92243 607.000
35.96299 696.000
36.00355 742.000
36.04411 770.000
36.08467 882.000
36.12523 962.000
36.16579 1041.000
36.20635 1085.000
36.24691 1068.000
36.28748 1053.000
36.32804 934.000
36.36860 904.000
36.40916 770.000
36.44972 650.000
36.49028 654.000
36.53084 551.000
36.57140 589.000
36.61196 548.000
36.65252 569.000
36.69308 551.000
36.73364 607.000
36.77420 589.000
36.81476 491.000
36.85532 546.000
36.89588 471.000
36.93644 481.000
36.97700 483.000
37.01756 467.000
37.05812 511.000
37.09868 570.000
37.13924 631.000
37.17980 673.000
37.22036 687.000
37.26092 701.000
37.30148 701.000
37.34204 648.000
37.38260 608.000
37.42316 557.000
37.46372 522.000
37.50428 508.000
37.54484 520.000
37.58540 436.000
37.62596 439.000
37.66652 450.000
37.70708 458.000
37.74764 526.000
37.78820 496.000
37.82876 540.000
37.86932 596.000
37.90988 638.000
37.95044 636.000
37.99100 642.000
38.03156 634.000
38.07212 545.000
38.11268 579.000
38.15324 642.000
38.19381 652.000
38.23437 660.000
38.27493 716.000
38.31549 727.000
38.35605 722.000
38.39661 691.000
38.43717 717.000
38.47773 741.000
38.51829 653.000
38.55885 636.000
38.59941 594.000
38.63997 506.000
38.68053 572.000
38.72109 507.000
38.76165 600.000
38.80221 630.000
38.84277 696.000
38.88333 726.000
38.92389 760.000
38.96445 809.000
39.00501 891.000
39.04557 895.000
39.08613 857.000
39.12669 756.000
39.16725 696.000
39.20781 609.000
39.24837 587.000
39.28893 524.000
39.32949 562.000
39.37005 571.000
39.41061 587.000
39.45117 581.000
39.49173 610.000
39.53229 647.000
39.57285 659.000
39.61341 661.000
39.65397 644.000
39.69453 549.000
39.73509 532.000
39.77565 549.000
39.81621 566.000
39.85677 617.000
39.89733 567.000
39.93789 600.000
39.97845 620.000
39.99873 606.000