File: Task01/nick/files/ESI_material_XRD/steady_state/crystal_size_analysis/Volumes_IPA/RVR_IPA_30uL.xy
4.00155 2284.000
4.04211 2213.000
4.08267 2157.000
4.12323 1925.000
4.16379 1794.000
4.20435 1753.000
4.24491 1699.000
4.28547 1652.000
4.32603 1648.000
4.36659 1441.000
4.40715 1439.000
4.44771 1391.000
4.48827 1294.000
4.52883 1285.000
4.56939 1240.000
4.60995 1231.000
4.65051 1159.000
4.69107 1088.000
4.73163 1083.000
4.77219 1072.000
4.81275 1093.000
4.85331 1066.000
4.89387 980.000
4.93443 1009.000
4.97499 942.000
5.01555 946.000
5.05611 988.000
5.09667 961.000
5.13723 878.000
5.17779 856.000
5.21835 769.000
5.25891 786.000
5.29947 758.000
5.34003 766.000
5.38059 768.000
5.42115 732.000
5.46171 730.000
5.50227 779.000
5.54283 751.000
5.58339 712.000
5.62395 670.000
5.66451 666.000
5.70507 620.000
5.74564 652.000
5.78620 608.000
5.82676 609.000
5.86732 591.000
5.90788 614.000
5.94844 624.000
5.98900 585.000
6.02956 540.000
6.07012 551.000
6.11068 555.000
6.15124 600.000
6.19180 585.000
6.23236 626.000
6.27292 690.000
6.31348 766.000
6.35404 791.000
6.39460 970.000
6.43516 912.000
6.47572 683.000
6.51628 581.000
6.55684 550.000
6.59740 573.000
6.63796 630.000
6.67852 603.000
6.71908 692.000
6.75964 827.000
6.80020 834.000
6.84076 784.000
6.88132 605.000
6.92188 532.000
6.96244 467.000
7.00300 480.000
7.04356 467.000
7.08412 441.000
7.12468 440.000
7.16524 418.000
7.20580 450.000
7.24636 454.000
7.28692 416.000
7.32748 451.000
7.36804 436.000
7.40860 430.000
7.44916 419.000
7.48972 427.000
7.53028 435.000
7.57084 412.000
7.61140 417.000
7.65197 440.000
7.69253 438.000
7.73309 443.000
7.77365 456.000
7.81421 399.000
7.85477 411.000
7.89533 459.000
7.93589 421.000
7.97645 406.000
8.01701 420.000
8.05757 440.000
8.09813 449.000
8.13869 482.000
8.17925 486.000
8.21981 499.000
8.26037 663.000
8.30093 760.000
8.34149 1043.000
8.38205 1125.000
8.42261 1181.000
8.46317 1461.000
8.50373 2099.000
8.54429 3339.000
8.58485 4770.000
8.62541 5575.000
8.66597 4059.000
8.70653 2189.000
8.74709 1183.000
8.78765 842.000
8.82821 667.000
8.86877 606.000
8.90933 563.000
8.94989 553.000
8.99045 495.000
9.03101 505.000
9.07157 521.000
9.11213 514.000
9.15269 558.000
9.19325 608.000
9.23381 600.000
9.27437 663.000
9.31493 940.000
9.35549 1304.000
9.39605 1883.000
9.43661 2720.000
9.47717 3050.000
9.51773 2263.000
9.55830 1276.000
9.59886 854.000
9.63942 837.000
9.67998 996.000
9.72054 1351.000
9.76110 2242.000
9.80166 3217.000
9.84222 4007.000
9.88278 3120.000
9.92334 1631.000
9.96390 974.000
10.00446 725.000
10.04502 637.000
10.08558 576.000
10.12614 528.000
10.16670 498.000
10.20726 449.000
10.24782 443.000
10.28838 441.000
10.32894 535.000
10.36950 518.000
10.41006 528.000
10.45062 530.000
10.49118 523.000
10.53174 505.000
10.57230 505.000
10.61286 492.000
10.65342 500.000
10.69398 468.000
10.73454 545.000
10.77510 687.000
10.81566 1008.000
10.85622 1489.000
10.89678 2114.000
10.93734 2370.000
10.97790 1716.000
11.01846 856.000
11.05902 599.000
11.09958 498.000
11.14014 447.000
11.18070 416.000
11.22126 425.000
11.26182 384.000
11.30238 387.000
11.34294 385.000
11.38350 381.000
11.42406 362.000
11.46463 396.000
11.50519 396.000
11.54575 361.000
11.58631 325.000
11.62687 359.000
11.66743 361.000
11.70799 386.000
11.74855 365.000
11.78911 403.000
11.82967 321.000
11.87023 363.000
11.91079 347.000
11.95135 355.000
11.99191 334.000
12.03247 398.000
12.07303 318.000
12.11359 398.000
12.15415 338.000
12.19471 368.000
12.23527 369.000
12.27583 391.000
12.31639 458.000
12.35695 437.000
12.39751 365.000
12.43807 406.000
12.47863 350.000
12.51919 343.000
12.55975 353.000
12.60031 332.000
12.64087 369.000
12.68143 359.000
12.72199 355.000
12.76255 394.000
12.80311 419.000
12.84367 366.000
12.88423 481.000
12.92479 519.000
12.96535 568.000
13.00591 563.000
13.04647 473.000
13.08703 481.000
13.12759 555.000
13.16815 675.000
13.20871 772.000
13.24927 947.000
13.28983 805.000
13.33039 637.000
13.37096 572.000
13.41152 584.000
13.45208 599.000
13.49264 717.000
13.53320 898.000
13.57376 1171.000
13.61432 1648.000
13.65488 2284.000
13.69544 2473.000
13.73600 2291.000
13.77656 2250.000
13.81712 1863.000
13.85768 1130.000
13.89824 705.000
13.93880 585.000
13.97936 523.000
14.01992 480.000
14.06048 452.000
14.10104 434.000
14.14160 428.000
14.18216 403.000
14.22272 404.000
14.26328 365.000
14.30384 378.000
14.34440 380.000
14.38496 420.000
14.42552 398.000
14.46608 430.000
14.50664 432.000
14.54720 431.000
14.58776 521.000
14.62832 539.000
14.66888 565.000
14.70944 557.000
14.75000 575.000
14.79056 687.000
14.83112 796.000
14.87168 851.000
14.91224 769.000
14.95280 561.000
14.99336 470.000
15.03392 439.000
15.07448 398.000
15.11504 421.000
15.15560 403.000
15.19616 391.000
15.23672 461.000
15.27729 401.000
15.31785 456.000
15.35841 462.000
15.39897 438.000
15.43953 541.000
15.48009 661.000
15.52065 753.000
15.56121 919.000
15.60177 971.000
15.64233 961.000
15.68289 820.000
15.72345 758.000
15.76401 696.000
15.80457 714.000
15.84513 827.000
15.88569 1096.000
15.92625 1463.000
15.96681 2043.000
16.00737 2859.000
16.04793 3602.000
16.08849 3239.000
16.12905 2055.000
16.16961 1230.000
16.21017 976.000
16.25073 986.000
16.29129 1022.000
16.33185 1240.000
16.37241 1480.000
16.41297 1592.000
16.45353 1478.000
16.49409 1401.000
16.53465 1658.000
16.57521 2100.000
16.61577 2686.000
16.65633 3095.000
16.69689 2424.000
16.73745 1567.000
16.77801 1171.000
16.81857 995.000
16.85913 845.000
16.89969 803.000
16.94025 757.000
16.98081 865.000
17.02137 972.000
17.06193 1139.000
17.10249 1293.000
17.14305 1538.000
17.18362 1856.000
17.22418 2453.000
17.26474 3403.000
17.30530 4130.000
17.34586 4007.000
17.38642 2781.000
17.42698 1663.000
17.46754 1360.000
17.50810 1425.000
17.54866 1600.000
17.58922 2098.000
17.62978 2966.000
17.67034 4230.000
17.71090 5953.000
17.75146 6612.000
17.79202 5193.000
17.83258 3129.000
17.87314 1936.000
17.91370 1646.000
17.95426 1517.000
17.99482 1446.000
18.03538 1513.000
18.07594 1739.000
18.11650 1990.000
18.15706 2261.000
18.19762 2952.000
18.23818 3886.000
18.27874 5192.000
18.31930 6186.000
18.35986 6654.000
18.40042 5523.000
18.44098 3523.000
18.48154 2014.000
18.52210 1416.000
18.56266 1174.000
18.60322 1136.000
18.64378 1281.000
18.68434 1415.000
18.72490 1566.000
18.76546 1796.000
18.80602 2380.000
18.84658 2907.000
18.88714 3364.000
18.92770 2908.000
18.96826 2287.000
19.00882 1907.000
19.04938 1480.000
19.08995 1227.000
19.13051 1097.000
19.17107 1099.000
19.21163 1228.000
19.25219 1281.000
19.29275 1528.000
19.33331 1658.000
19.37387 1858.000
19.41443 2476.000
19.45499 2940.000
19.49555 2918.000
19.53611 2515.000
19.57667 2082.000
19.61723 1889.000
19.65779 2192.000
19.69835 2580.000
19.73891 3183.000
19.77947 3289.000
19.82003 2816.000
19.86059 2606.000
19.90115 2929.000
19.94171 3566.000
19.98227 4562.000
20.02283 4966.000
20.06339 4035.000
20.10395 2923.000
20.14451 2219.000
20.18507 1882.000
20.22563 1911.000
20.26619 2005.000
20.30675 2180.000
20.34731 2240.000
20.38787 2088.000
20.42843 1903.000
20.46899 2140.000
20.50955 2594.000
20.55011 3253.000
20.59067 4048.000
20.63123 3836.000
20.67179 2809.000
20.71235 1916.000
20.75291 1363.000
20.79347 1162.000
20.83403 1139.000
20.87459 1313.000
20.91515 1249.000
20.95571 1165.000
20.99628 1073.000
21.03684 988.000
21.07740 1024.000
21.11796 1116.000
21.15852 1173.000
21.19908 1444.000
21.23964 1668.000
21.28020 1841.000
21.32076 2142.000
21.36132 2641.000
21.40188 3168.000
21.44244 3642.000
21.48300 3786.000
21.52356 3753.000
21.56412 4016.000
21.60468 5051.000
21.64524 5770.000
21.68580 5386.000
21.72636 3945.000
21.76692 2507.000
21.80748 1702.000
21.84804 1387.000
21.88860 1322.000
21.92916 1318.000
21.96972 1476.000
22.01028 1507.000
22.05084 1820.000
22.09140 2134.000
22.13196 2402.000
22.17252 2521.000
22.21308 2210.000
22.25364 1613.000
22.29420 1120.000
22.33476 989.000
22.37532 967.000
22.41588 949.000
22.45644 992.000
22.49700 1140.000
22.53756 1269.000
22.57812 1305.000
22.61868 1255.000
22.65924 1413.000
22.69980 1689.000
22.74036 1689.000
22.78092 1349.000
22.82148 1146.000
22.86204 990.000
22.90261 883.000
22.94317 870.000
22.98373 910.000
23.02429 979.000
23.06485 1010.000
23.10541 876.000
23.14597 811.000
23.18653 873.000
23.22709 829.000
23.26765 1077.000
23.30821 1209.000
23.34877 1396.000
23.38933 1613.000
23.42989 1698.000
23.47045 1496.000
23.51101 1318.000
23.55157 1177.000
23.59213 1171.000
23.63269 1121.000
23.67325 1165.000
23.71381 1103.000
23.75437 1056.000
23.79493 1067.000
23.83549 1156.000
23.87605 1265.000
23.91661 1381.000
23.95717 1446.000
23.99773 1481.000
24.03829 1475.000
24.07885 1434.000
24.11941 1518.000
24.15997 1488.000
24.20053 1389.000
24.24109 1172.000
24.28165 1094.000
24.32221 1012.000
24.36277 1128.000
24.40333 1116.000
24.44389 1101.000
24.48445 961.000
24.52501 985.000
24.56557 930.000
24.60613 1022.000
24.64669 1168.000
24.68725 1258.000
24.72781 1465.000
24.76837 1423.000
24.80893 1289.000
24.84950 1195.000
24.89006 1003.000
24.93062 914.000
24.97118 825.000
25.01174 778.000
25.05230 912.000
25.09286 1097.000
25.13342 1140.000
25.17398 1510.000
25.21454 1939.000
25.25510 2185.000
25.29566 2625.000
25.33622 2619.000
25.37678 2277.000
25.41734 1829.000
25.45790 1501.000
25.49846 1170.000
25.53902 975.000
25.57958 916.000
25.62014 874.000
25.66070 958.000
25.70126 1120.000
25.74182 1216.000
25.78238 1311.000
25.82294 1338.000
25.86350 1147.000
25.90406 1175.000
25.94462 1210.000
25.98518 1325.000
26.02574 1572.000
26.06630 1736.000
26.10686 1725.000
26.14742 1588.000
26.18798 1446.000
26.22854 1264.000
26.26910 1335.000
26.30966 1350.000
26.35022 1300.000
26.39078 1305.000
26.43134 1259.000
26.47190 1244.000
26.51246 1113.000
26.55302 951.000
26.59358 819.000
26.63414 763.000
26.67470 738.000
26.71526 716.000
26.75583 748.000
26.79639 823.000
26.83695 898.000
26.87751 974.000
26.91807 1010.000
26.95863 852.000
26.99919 777.000
27.03975 720.000
27.08031 630.000
27.12087 607.000
27.16143 662.000
27.20199 597.000
27.24255 693.000
27.28311 688.000
27.32367 675.000
27.36423 695.000
27.40479 804.000
27.44535 754.000
27.48591 772.000
27.52647 787.000
27.56703 738.000
27.60759 604.000
27.64815 524.000
27.68871 546.000
27.72927 481.000
27.76983 508.000
27.81039 547.000
27.85095 516.000
27.89151 536.000
27.93207 487.000
27.97263 577.000
28.01319 573.000
28.05375 528.000
28.09431 528.000
28.13487 562.000
28.17543 535.000
28.21599 571.000
28.25655 643.000
28.29711 670.000
28.33767 745.000
28.37823 971.000
28.41879 1111.000
28.45935 1235.000
28.49991 1445.000
28.54047 1672.000
28.58103 1727.000
28.62159 1526.000
28.66216 1467.000
28.70272 1270.000
28.74328 1155.000
28.78384 1050.000
28.82440 802.000
28.86496 697.000
28.90552 619.000
28.94608 600.000
28.98664 535.000
29.02720 558.000
29.06776 543.000
29.10832 591.000
29.14888 638.000
29.18944 632.000
29.23000 567.000
29.27056 564.000
29.31112 535.000
29.35168 529.000
29.39224 553.000
29.43280 511.000
29.47336 546.000
29.51392 590.000
29.55448 670.000
29.59504 731.000
29.63560 846.000
29.67616 982.000
29.71672 1104.000
29.75728 1245.000
29.79784 1366.000
29.83840 1365.000
29.87896 1204.000
29.91952 1140.000
29.96008 1116.000
30.00064 1144.000
30.04120 1199.000
30.08176 1080.000
30.12232 985.000
30.16288 953.000
30.20344 974.000
30.24400 846.000
30.28456 800.000
30.32512 760.000
30.36568 675.000
30.40624 632.000
30.44680 609.000
30.48736 532.000
30.52792 524.000
30.56849 508.000
30.60905 502.000
30.64961 528.000
30.69017 551.000
30.73073 584.000
30.77129 584.000
30.81185 653.000
30.85241 636.000
30.89297 629.000
30.93353 679.000
30.97409 716.000
31.01465 638.000
31.05521 603.000
31.09577 614.000
31.13633 635.000
31.17689 654.000
31.21745 757.000
31.25801 829.000
31.29857 839.000
31.33913 921.000
31.37969 873.000
31.42025 937.000
31.46081 991.000
31.50137 950.000
31.54193 1130.000
31.58249 1294.000
31.62305 1324.000
31.66361 1233.000
31.70417 1164.000
31.74473 1077.000
31.78529 911.000
31.82585 818.000
31.86641 830.000
31.90697 828.000
31.94753 811.000
31.98809 881.000
32.02865 920.000
32.06921 833.000
32.10977 762.000
32.15033 688.000
32.19089 613.000
32.23145 587.000
32.27201 589.000
32.31257 602.000
32.35313 669.000
32.39369 599.000
32.43425 564.000
32.47482 506.000
32.51538 505.000
32.55594 480.000
32.59650 472.000
32.63706 514.000
32.67762 482.000
32.71818 463.000
32.75874 475.000
32.79930 523.000
32.83986 475.000
32.88042 489.000
32.92098 539.000
32.96154 574.000
33.00210 509.000
33.04266 630.000
33.08322 641.000
33.12378 716.000
33.16434 653.000
33.20490 650.000
33.24546 562.000
33.28602 575.000
33.32658 545.000
33.36714 540.000
33.40770 581.000
33.44826 604.000
33.48882 602.000
33.52938 629.000
33.56994 682.000
33.61050 677.000
33.65106 651.000
33.69162 687.000
33.73218 632.000
33.77274 520.000
33.81330 549.000
33.85386 491.000
33.89442 489.000
33.93498 486.000
33.97554 481.000
34.01610 487.000
34.05666 477.000
34.09722 481.000
34.13778 441.000
34.17834 498.000
34.21890 490.000
34.25946 432.000
34.30002 410.000
34.34058 449.000
34.38115 391.000
34.42171 384.000
34.46227 436.000
34.50283 484.000
34.54339 450.000
34.58395 493.000
34.62451 518.000
34.66507 531.000
34.70563 559.000
34.74619 558.000
34.78675 612.000
34.82731 708.000
34.86787 648.000
34.90843 750.000
34.94899 804.000
34.98955 843.000
35.03011 836.000
35.07067 768.000
35.11123 779.000
35.15179 772.000
35.19235 765.000
35.23291 759.000
35.27347 747.000
35.31403 713.000
35.35459 714.000
35.39515 571.000
35.43571 543.000
35.47627 522.000
35.51683 510.000
35.55739 455.000
35.59795 517.000
35.63851 499.000
35.67907 469.000
35.71963 484.000
35.76019 478.000
35.80075 506.000
35.84131 510.000
35.88187 540.000
35.92243 649.000
35.96299 675.000
36.00355 663.000
36.04411 696.000
36.08467 723.000
36.12523 811.000
36.16579 883.000
36.20635 899.000
36.24691 787.000
36.28748 869.000
36.32804 803.000
36.36860 667.000
36.40916 668.000
36.44972 621.000
36.49028 578.000
36.53084 529.000
36.57140 528.000
36.61196 526.000
36.65252 520.000
36.69308 542.000
36.73364 499.000
36.77420 498.000
36.81476 453.000
36.85532 484.000
36.89588 463.000
36.93644 483.000
36.97700 463.000
37.01756 512.000
37.05812 503.000
37.09868 497.000
37.13924 587.000
37.17980 598.000
37.22036 597.000
37.26092 577.000
37.30148 591.000
37.34204 575.000
37.38260 536.000
37.42316 531.000
37.46372 500.000
37.50428 492.000
37.54484 460.000
37.58540 438.000
37.62596 442.000
37.66652 427.000
37.70708 465.000
37.74764 502.000
37.78820 492.000
37.82876 524.000
37.86932 497.000
37.90988 591.000
37.95044 545.000
37.99100 578.000
38.03156 584.000
38.07212 523.000
38.11268 552.000
38.15324 552.000
38.19381 580.000
38.23437 596.000
38.27493 662.000
38.31549 657.000
38.35605 589.000
38.39661 651.000
38.43717 621.000
38.47773 643.000
38.51829 589.000
38.55885 552.000
38.59941 515.000
38.63997 490.000
38.68053 507.000
38.72109 551.000
38.76165 563.000
38.80221 598.000
38.84277 573.000
38.88333 620.000
38.92389 677.000
38.96445 716.000
39.00501 734.000
39.04557 805.000
39.08613 668.000
39.12669 591.000
39.16725 609.000
39.20781 540.000
39.24837 559.000
39.28893 487.000
39.32949 487.000
39.37005 512.000
39.41061 506.000
39.45117 532.000
39.49173 539.000
39.53229 551.000
39.57285 568.000
39.61341 568.000
39.65397 538.000
39.69453 518.000
39.73509 514.000
39.77565 502.000
39.81621 503.000
39.85677 526.000
39.89733 491.000
39.93789 536.000
39.97845 564.000
39.99873 554.000