File: Task01/nick/files/ESI_material_XRD/steady_state/crystal_size_analysis/Volumes_IPA/RVR_IPA_10uL.xy
4.00155 2847.000
4.04211 2748.000
4.08267 2566.000
4.12323 2491.000
4.16379 2280.000
4.20435 2225.000
4.24491 2175.000
4.28547 2002.000
4.32603 1978.000
4.36659 1915.000
4.40715 1783.000
4.44771 1723.000
4.48827 1596.000
4.52883 1593.000
4.56939 1467.000
4.60995 1479.000
4.65051 1391.000
4.69107 1397.000
4.73163 1251.000
4.77219 1329.000
4.81275 1262.000
4.85331 1151.000
4.89387 1166.000
4.93443 1124.000
4.97499 1071.000
5.01555 1037.000
5.05611 984.000
5.09667 1014.000
5.13723 949.000
5.17779 924.000
5.21835 934.000
5.25891 888.000
5.29947 884.000
5.34003 897.000
5.38059 896.000
5.42115 704.000
5.46171 794.000
5.50227 756.000
5.54283 743.000
5.58339 724.000
5.62395 707.000
5.66451 677.000
5.70507 673.000
5.74564 662.000
5.78620 653.000
5.82676 644.000
5.86732 598.000
5.90788 563.000
5.94844 584.000
5.98900 622.000
6.02956 583.000
6.07012 556.000
6.11068 545.000
6.15124 600.000
6.19180 526.000
6.23236 486.000
6.27292 526.000
6.31348 537.000
6.35404 549.000
6.39460 553.000
6.43516 569.000
6.47572 623.000
6.51628 643.000
6.55684 784.000
6.59740 839.000
6.63796 1210.000
6.67852 1688.000
6.71908 2592.000
6.75964 3769.000
6.80020 4739.000
6.84076 4764.000
6.88132 3564.000
6.92188 1952.000
6.96244 995.000
7.00300 772.000
7.04356 619.000
7.08412 555.000
7.12468 563.000
7.16524 529.000
7.20580 509.000
7.24636 466.000
7.28692 481.000
7.32748 472.000
7.36804 427.000
7.40860 458.000
7.44916 412.000
7.48972 415.000
7.53028 419.000
7.57084 442.000
7.61140 421.000
7.65197 412.000
7.69253 402.000
7.73309 437.000
7.77365 363.000
7.81421 435.000
7.85477 421.000
7.89533 408.000
7.93589 439.000
7.97645 449.000
8.01701 474.000
8.05757 556.000
8.09813 602.000
8.13869 748.000
8.17925 1009.000
8.21981 1229.000
8.26037 1919.000
8.30093 2797.000
8.34149 4386.000
8.38205 5158.000
8.42261 4568.000
8.46317 2593.000
8.50373 1413.000
8.54429 987.000
8.58485 881.000
8.62541 964.000
8.66597 872.000
8.70653 722.000
8.74709 532.000
8.78765 494.000
8.82821 463.000
8.86877 483.000
8.90933 397.000
8.94989 401.000
8.99045 404.000
9.03101 422.000
9.07157 429.000
9.11213 375.000
9.15269 395.000
9.19325 411.000
9.23381 380.000
9.27437 429.000
9.31493 427.000
9.35549 413.000
9.39605 504.000
9.43661 514.000
9.47717 575.000
9.51773 572.000
9.55830 461.000
9.59886 380.000
9.63942 408.000
9.67998 427.000
9.72054 421.000
9.76110 479.000
9.80166 579.000
9.84222 640.000
9.88278 639.000
9.92334 563.000
9.96390 461.000
10.00446 380.000
10.04502 423.000
10.08558 449.000
10.12614 359.000
10.16670 376.000
10.20726 382.000
10.24782 386.000
10.28838 345.000
10.32894 395.000
10.36950 419.000
10.41006 461.000
10.45062 575.000
10.49118 739.000
10.53174 920.000
10.57230 1105.000
10.61286 867.000
10.65342 626.000
10.69398 462.000
10.73454 427.000
10.77510 381.000
10.81566 426.000
10.85622 464.000
10.89678 451.000
10.93734 506.000
10.97790 481.000
11.01846 441.000
11.05902 402.000
11.09958 374.000
11.14014 389.000
11.18070 353.000
11.22126 362.000
11.26182 343.000
11.30238 355.000
11.34294 374.000
11.38350 364.000
11.42406 353.000
11.46463 317.000
11.50519 328.000
11.54575 337.000
11.58631 334.000
11.62687 359.000
11.66743 327.000
11.70799 298.000
11.74855 369.000
11.78911 317.000
11.82967 334.000
11.87023 321.000
11.91079 312.000
11.95135 326.000
11.99191 383.000
12.03247 355.000
12.07303 326.000
12.11359 331.000
12.15415 340.000
12.19471 372.000
12.23527 350.000
12.27583 334.000
12.31639 323.000
12.35695 321.000
12.39751 369.000
12.43807 350.000
12.47863 357.000
12.51919 405.000
12.55975 388.000
12.60031 357.000
12.64087 350.000
12.68143 376.000
12.72199 359.000
12.76255 356.000
12.80311 375.000
12.84367 331.000
12.88423 373.000
12.92479 396.000
12.96535 393.000
13.00591 421.000
13.04647 482.000
13.08703 481.000
13.12759 573.000
13.16815 738.000
13.20871 819.000
13.24927 735.000
13.28983 800.000
13.33039 953.000
13.37096 967.000
13.41152 973.000
13.45208 990.000
13.49264 1170.000
13.53320 1364.000
13.57376 1445.000
13.61432 1162.000
13.65488 1026.000
13.69544 904.000
13.73600 789.000
13.77656 641.000
13.81712 608.000
13.85768 441.000
13.89824 460.000
13.93880 416.000
13.97936 390.000
14.01992 409.000
14.06048 384.000
14.10104 384.000
14.14160 396.000
14.18216 402.000
14.22272 440.000
14.26328 413.000
14.30384 496.000
14.34440 449.000
14.38496 478.000
14.42552 449.000
14.46608 507.000
14.50664 603.000
14.54720 764.000
14.58776 1065.000
14.62832 1489.000
14.66888 1904.000
14.70944 1774.000
14.75000 1240.000
14.79056 871.000
14.83112 946.000
14.87168 1074.000
14.91224 1341.000
14.95280 1211.000
14.99336 1001.000
15.03392 678.000
15.07448 531.000
15.11504 489.000
15.15560 433.000
15.19616 453.000
15.23672 437.000
15.27729 447.000
15.31785 433.000
15.35841 387.000
15.39897 437.000
15.43953 444.000
15.48009 442.000
15.52065 413.000
15.56121 462.000
15.60177 496.000
15.64233 472.000
15.68289 483.000
15.72345 489.000
15.76401 487.000
15.80457 484.000
15.84513 492.000
15.88569 508.000
15.92625 546.000
15.96681 584.000
16.00737 640.000
16.04793 787.000
16.08849 769.000
16.12905 809.000
16.16961 820.000
16.21017 953.000
16.25073 1281.000
16.29129 1762.000
16.33185 2415.000
16.37241 2938.000
16.41297 2934.000
16.45353 2359.000
16.49409 1760.000
16.53465 1533.000
16.57521 1609.000
16.61577 1824.000
16.65633 2133.000
16.69689 2086.000
16.73745 2159.000
16.77801 2539.000
16.81857 2662.000
16.85913 2376.000
16.89969 1763.000
16.94025 1624.000
16.98081 1864.000
17.02137 2572.000
17.06193 3326.000
17.10249 4138.000
17.14305 3869.000
17.18362 2976.000
17.22418 1934.000
17.26474 1438.000
17.30530 1270.000
17.34586 1133.000
17.38642 994.000
17.42698 935.000
17.46754 837.000
17.50810 720.000
17.54866 773.000
17.58922 736.000
17.62978 825.000
17.67034 986.000
17.71090 1201.000
17.75146 1402.000
17.79202 1521.000
17.83258 1503.000
17.87314 1504.000
17.91370 1703.000
17.95426 2351.000
17.99482 3144.000
18.03538 4445.000
18.07594 5752.000
18.11650 6259.000
18.15706 5199.000
18.19762 3494.000
18.23818 2375.000
18.27874 1795.000
18.31930 1532.000
18.35986 1609.000
18.40042 1552.000
18.44098 1349.000
18.48154 1347.000
18.52210 1400.000
18.56266 1598.000
18.60322 2061.000
18.64378 2609.000
18.68434 3161.000
18.72490 2996.000
18.76546 2722.000
18.80602 2008.000
18.84658 1615.000
18.88714 1420.000
18.92770 1424.000
18.96826 1439.000
19.00882 1526.000
19.04938 1562.000
19.08995 1497.000
19.13051 1287.000
19.17107 1034.000
19.21163 934.000
19.25219 1029.000
19.29275 1095.000
19.33331 1275.000
19.37387 1578.000
19.41443 2062.000
19.45499 2811.000
19.49555 3447.000
19.53611 3692.000
19.57667 3386.000
19.61723 2678.000
19.65779 2114.000
19.69835 1757.000
19.73891 1922.000
19.77947 2118.000
19.82003 2481.000
19.86059 2997.000
19.90115 3571.000
19.94171 3863.000
19.98227 3392.000
20.02283 2807.000
20.06339 2369.000
20.10395 2224.000
20.14451 2418.000
20.18507 2648.000
20.22563 2927.000
20.26619 3164.000
20.30675 3550.000
20.34731 3946.000
20.38787 3509.000
20.42843 2426.000
20.46899 1599.000
20.50955 1376.000
20.55011 1294.000
20.59067 1310.000
20.63123 1291.000
20.67179 1109.000
20.71235 1063.000
20.75291 932.000
20.79347 895.000
20.83403 928.000
20.87459 918.000
20.91515 933.000
20.95571 995.000
20.99628 1053.000
21.03684 1111.000
21.07740 1290.000
21.11796 1465.000
21.15852 1744.000
21.19908 2038.000
21.23964 2547.000
21.28020 3131.000
21.32076 4129.000
21.36132 5418.000
21.40188 6553.000
21.44244 7325.000
21.48300 8243.000
21.52356 8785.000
21.56412 8822.000
21.60468 8538.000
21.64524 7879.000
21.68580 6691.000
21.72636 5227.000
21.76692 3670.000
21.80748 2517.000
21.84804 1648.000
21.88860 1388.000
21.92916 1233.000
21.96972 1082.000
22.01028 1010.000
22.05084 995.000
22.09140 975.000
22.13196 1014.000
22.17252 960.000
22.21308 1017.000
22.25364 954.000
22.29420 1018.000
22.33476 1037.000
22.37532 1029.000
22.41588 1158.000
22.45644 1274.000
22.49700 1441.000
22.53756 1302.000
22.57812 1321.000
22.61868 1140.000
22.65924 1018.000
22.69980 1044.000
22.74036 1006.000
22.78092 1141.000
22.82148 1179.000
22.86204 1320.000
22.90261 1331.000
22.94317 1323.000
22.98373 1231.000
23.02429 1249.000
23.06485 1300.000
23.10541 1103.000
23.14597 967.000
23.18653 898.000
23.22709 944.000
23.26765 1070.000
23.30821 1264.000
23.34877 1518.000
23.38933 1765.000
23.42989 2191.000
23.47045 2613.000
23.51101 3027.000
23.55157 2973.000
23.59213 2701.000
23.63269 2246.000
23.67325 1787.000
23.71381 1621.000
23.75437 1505.000
23.79493 1447.000
23.83549 1304.000
23.87605 1281.000
23.91661 1139.000
23.95717 1030.000
23.99773 919.000
24.03829 893.000
24.07885 893.000
24.11941 884.000
24.15997 943.000
24.20053 1030.000
24.24109 1128.000
24.28165 1286.000
24.32221 1538.000
24.36277 1831.000
24.40333 2130.000
24.44389 2138.000
24.48445 1854.000
24.52501 1402.000
24.56557 1083.000
24.60613 1027.000
24.64669 979.000
24.68725 1102.000
24.72781 1198.000
24.76837 1130.000
24.80893 1141.000
24.84950 1030.000
24.89006 878.000
24.93062 887.000
24.97118 817.000
25.01174 957.000
25.05230 1092.000
25.09286 1178.000
25.13342 1434.000
25.17398 1587.000
25.21454 1596.000
25.25510 1721.000
25.29566 1608.000
25.33622 1571.000
25.37678 1477.000
25.41734 1326.000
25.45790 1325.000
25.49846 1301.000
25.53902 1219.000
25.57958 1037.000
25.62014 868.000
25.66070 813.000
25.70126 725.000
25.74182 746.000
25.78238 795.000
25.82294 856.000
25.86350 952.000
25.90406 1064.000
25.94462 1172.000
25.98518 1455.000
26.02574 1641.000
26.06630 1690.000
26.10686 1651.000
26.14742 1548.000
26.18798 1356.000
26.22854 1197.000
26.26910 995.000
26.30966 1142.000
26.35022 1102.000
26.39078 1174.000
26.43134 1152.000
26.47190 1290.000
26.51246 1346.000
26.55302 1451.000
26.59358 1488.000
26.63414 1418.000
26.67470 1335.000
26.71526 1249.000
26.75583 1177.000
26.79639 1109.000
26.83695 1233.000
26.87751 1317.000
26.91807 1453.000
26.95863 1533.000
26.99919 1510.000
27.03975 1524.000
27.08031 1403.000
27.12087 1375.000
27.16143 1239.000
27.20199 1129.000
27.24255 1086.000
27.28311 1067.000
27.32367 1032.000
27.36423 1063.000
27.40479 1155.000
27.44535 1194.000
27.48591 1238.000
27.52647 1218.000
27.56703 1034.000
27.60759 931.000
27.64815 746.000
27.68871 670.000
27.72927 614.000
27.76983 611.000
27.81039 562.000
27.85095 543.000
27.89151 581.000
27.93207 566.000
27.97263 505.000
28.01319 537.000
28.05375 557.000
28.09431 494.000
28.13487 575.000
28.17543 588.000
28.21599 662.000
28.25655 679.000
28.29711 714.000
28.33767 818.000
28.37823 894.000
28.41879 1000.000
28.45935 1046.000
28.49991 1099.000
28.54047 1216.000
28.58103 1132.000
28.62159 1172.000
28.66216 1061.000
28.70272 949.000
28.74328 849.000
28.78384 824.000
28.82440 742.000
28.86496 762.000
28.90552 805.000
28.94608 791.000
28.98664 906.000
29.02720 979.000
29.06776 999.000
29.10832 1064.000
29.14888 1043.000
29.18944 948.000
29.23000 866.000
29.27056 880.000
29.31112 838.000
29.35168 950.000
29.39224 876.000
29.43280 803.000
29.47336 843.000
29.51392 796.000
29.55448 804.000
29.59504 855.000
29.63560 867.000
29.67616 810.000
29.71672 951.000
29.75728 1055.000
29.79784 1015.000
29.83840 1154.000
29.87896 1064.000
29.91952 1070.000
29.96008 1063.000
30.00064 1064.000
30.04120 1001.000
30.08176 944.000
30.12232 878.000
30.16288 801.000
30.20344 730.000
30.24400 658.000
30.28456 724.000
30.32512 724.000
30.36568 770.000
30.40624 840.000
30.44680 808.000
30.48736 817.000
30.52792 763.000
30.56849 649.000
30.60905 609.000
30.64961 519.000
30.69017 479.000
30.73073 528.000
30.77129 509.000
30.81185 505.000
30.85241 492.000
30.89297 516.000
30.93353 562.000
30.97409 596.000
31.01465 626.000
31.05521 687.000
31.09577 693.000
31.13633 727.000
31.17689 742.000
31.21745 719.000
31.25801 686.000
31.29857 629.000
31.33913 612.000
31.37969 593.000
31.42025 491.000
31.46081 542.000
31.50137 558.000
31.54193 550.000
31.58249 601.000
31.62305 635.000
31.66361 688.000
31.70417 644.000
31.74473 668.000
31.78529 670.000
31.82585 655.000
31.86641 690.000
31.90697 661.000
31.94753 669.000
31.98809 693.000
32.02865 706.000
32.06921 692.000
32.10977 644.000
32.15033 636.000
32.19089 635.000
32.23145 571.000
32.27201 512.000
32.31257 575.000
32.35313 590.000
32.39369 574.000
32.43425 560.000
32.47482 508.000
32.51538 499.000
32.55594 487.000
32.59650 493.000
32.63706 534.000
32.67762 509.000
32.71818 541.000
32.75874 537.000
32.79930 533.000
32.83986 544.000
32.88042 608.000
32.92098 611.000
32.96154 616.000
33.00210 588.000
33.04266 615.000
33.08322 641.000
33.12378 635.000
33.16434 624.000
33.20490 659.000
33.24546 706.000
33.28602 721.000
33.32658 713.000
33.36714 714.000
33.40770 704.000
33.44826 656.000
33.48882 643.000
33.52938 566.000
33.56994 576.000
33.61050 554.000
33.65106 523.000
33.69162 549.000
33.73218 516.000
33.77274 532.000
33.81330 523.000
33.85386 502.000
33.89442 565.000
33.93498 578.000
33.97554 594.000
34.01610 624.000
34.05666 626.000
34.09722 562.000
34.13778 630.000
34.17834 613.000
34.21890 646.000
34.25946 672.000
34.30002 679.000
34.34058 665.000
34.38115 698.000
34.42171 772.000
34.46227 840.000
34.50283 934.000
34.54339 1104.000
34.58395 1215.000
34.62451 1139.000
34.66507 1039.000
34.70563 925.000
34.74619 868.000
34.78675 827.000
34.82731 804.000
34.86787 824.000
34.90843 882.000
34.94899 906.000
34.98955 862.000
35.03011 859.000
35.07067 784.000
35.11123 714.000
35.15179 676.000
35.19235 675.000
35.23291 628.000
35.27347 587.000
35.31403 633.000
35.35459 560.000
35.39515 560.000
35.43571 567.000
35.47627 584.000
35.51683 612.000
35.55739 584.000
35.59795 615.000
35.63851 557.000
35.67907 575.000
35.71963 580.000
35.76019 515.000
35.80075 496.000
35.84131 444.000
35.88187 458.000
35.92243 485.000
35.96299 434.000
36.00355 542.000
36.04411 478.000
36.08467 543.000
36.12523 533.000
36.16579 621.000
36.20635 589.000
36.24691 578.000
36.28748 608.000
36.32804 670.000
36.36860 632.000
36.40916 661.000
36.44972 649.000
36.49028 657.000
36.53084 636.000
36.57140 708.000
36.61196 748.000
36.65252 745.000
36.69308 756.000
36.73364 832.000
36.77420 796.000
36.81476 854.000
36.85532 750.000
36.89588 786.000
36.93644 712.000
36.97700 704.000
37.01756 610.000
37.05812 682.000
37.09868 624.000
37.13924 675.000
37.17980 601.000
37.22036 679.000
37.26092 589.000
37.30148 596.000
37.34204 590.000
37.38260 555.000
37.42316 577.000
37.46372 560.000
37.50428 540.000
37.54484 540.000
37.58540 532.000
37.62596 537.000
37.66652 556.000
37.70708 578.000
37.74764 563.000
37.78820 583.000
37.82876 606.000
37.86932 661.000
37.90988 617.000
37.95044 676.000
37.99100 691.000
38.03156 666.000
38.07212 668.000
38.11268 685.000
38.15324 668.000
38.19381 576.000
38.23437 583.000
38.27493 552.000
38.31549 572.000
38.35605 570.000
38.39661 555.000
38.43717 585.000
38.47773 570.000
38.51829 544.000
38.55885 553.000
38.59941 565.000
38.63997 578.000
38.68053 535.000
38.72109 507.000
38.76165 499.000
38.80221 464.000
38.84277 519.000
38.88333 508.000
38.92389 504.000
38.96445 456.000
39.00501 505.000
39.04557 482.000
39.08613 481.000
39.12669 505.000
39.16725 532.000
39.20781 543.000
39.24837 517.000
39.28893 513.000
39.32949 536.000
39.37005 548.000
39.41061 605.000
39.45117 561.000
39.49173 591.000
39.53229 624.000
39.57285 655.000
39.61341 626.000
39.65397 679.000
39.69453 665.000
39.73509 643.000
39.77565 607.000
39.81621 564.000
39.85677 550.000
39.89733 540.000
39.93789 544.000
39.97845 559.000
39.99873 622.000