File: Task01/nick/files/ESI_material_XRD/kinetics/crystal_size_analysis/10ul IPA/2028_RVR_10ul_IPA_15m.xy
5.00155 1075.000
5.04211 895.000
5.08267 833.000
5.12323 844.000
5.16379 796.000
5.20435 801.000
5.24491 786.000
5.28547 732.000
5.32603 720.000
5.36659 761.000
5.40715 716.000
5.44771 720.000
5.48827 675.000
5.52883 650.000
5.56939 653.000
5.60995 670.000
5.65051 603.000
5.69107 588.000
5.73163 660.000
5.77219 623.000
5.81275 586.000
5.85331 662.000
5.89387 582.000
5.93443 552.000
5.97499 497.000
6.01555 488.000
6.05611 515.000
6.09667 519.000
6.13723 597.000
6.17779 521.000
6.21835 512.000
6.25891 506.000
6.29947 520.000
6.34003 575.000
6.38059 569.000
6.42115 592.000
6.46171 623.000
6.50227 652.000
6.54283 729.000
6.58339 918.000
6.62395 1318.000
6.66451 1777.000
6.70507 2800.000
6.74564 4231.000
6.78620 5364.000
6.82676 5335.000
6.86732 4295.000
6.90788 2493.000
6.94844 1230.000
6.98900 748.000
7.02956 682.000
7.07012 625.000
7.11068 505.000
7.15124 545.000
7.19180 485.000
7.23236 462.000
7.27292 417.000
7.31348 423.000
7.35404 431.000
7.39460 439.000
7.43516 423.000
7.47572 398.000
7.51628 431.000
7.55684 435.000
7.59740 398.000
7.63796 381.000
7.67852 426.000
7.71908 403.000
7.75964 404.000
7.80020 428.000
7.84076 473.000
7.88132 486.000
7.92188 480.000
7.96244 467.000
8.00300 621.000
8.04356 559.000
8.08412 605.000
8.12468 836.000
8.16524 1020.000
8.20580 1487.000
8.24636 2140.000
8.28692 3074.000
8.32748 4678.000
8.36804 5720.000
8.40860 5402.000
8.44916 3088.000
8.48972 1601.000
8.53028 1006.000
8.57084 778.000
8.61140 775.000
8.65197 724.000
8.69253 597.000
8.73309 522.000
8.77365 520.000
8.81421 459.000
8.85477 465.000
8.89533 448.000
8.93589 418.000
8.97645 422.000
9.01701 433.000
9.05757 446.000
9.09813 411.000
9.13869 426.000
9.17925 410.000
9.21981 440.000
9.26037 402.000
9.30093 436.000
9.34149 404.000
9.38205 427.000
9.42261 459.000
9.46317 458.000
9.50373 499.000
9.54429 399.000
9.58485 428.000
9.62541 405.000
9.66597 416.000
9.70653 430.000
9.74709 431.000
9.78765 467.000
9.82821 460.000
9.86877 514.000
9.90933 514.000
9.94989 455.000
9.99045 432.000
10.03101 394.000
10.07157 427.000
10.11213 380.000
10.15269 363.000
10.19325 416.000
10.23381 445.000
10.27437 432.000
10.31493 401.000
10.35549 460.000
10.39605 511.000
10.43661 618.000
10.47717 758.000
10.51773 983.000
10.55830 1171.000
10.59886 1058.000
10.63942 775.000
10.67998 541.000
10.72054 479.000
10.76110 431.000
10.80166 468.000
10.84222 404.000
10.88278 420.000
10.92334 385.000
10.96390 400.000
11.00446 391.000
11.04502 364.000
11.08558 338.000
11.12614 366.000
11.16670 345.000
11.20726 336.000
11.24782 355.000
11.28838 347.000
11.32894 373.000
11.36950 383.000
11.41006 328.000
11.45062 374.000
11.49118 382.000
11.53174 355.000
11.57230 358.000
11.61286 347.000
11.65342 365.000
11.69398 389.000
11.73454 317.000
11.77510 333.000
11.81566 339.000
11.85622 381.000
11.89678 358.000
11.93734 357.000
11.97790 374.000
12.01846 364.000
12.05902 371.000
12.09958 362.000
12.14014 329.000
12.18070 356.000
12.22126 386.000
12.26182 376.000
12.30238 352.000
12.34294 387.000
12.38350 426.000
12.42406 450.000
12.46463 389.000
12.50519 349.000
12.54575 378.000
12.58631 340.000
12.62687 371.000
12.66743 395.000
12.70799 380.000
12.74855 335.000
12.78911 345.000
12.82967 351.000
12.87023 398.000
12.91079 357.000
12.95135 393.000
12.99191 448.000
13.03247 452.000
13.07303 520.000
13.11359 629.000
13.15415 792.000
13.19471 838.000
13.23527 849.000
13.27583 810.000
13.31639 963.000
13.35695 989.000
13.39751 997.000
13.43807 1039.000
13.47863 1276.000
13.51919 1507.000
13.55975 1628.000
13.60031 1446.000
13.64087 1128.000
13.68143 1062.000
13.72199 754.000
13.76255 585.000
13.80311 536.000
13.84367 466.000
13.88423 453.000
13.92479 454.000
13.96535 435.000
14.00591 415.000
14.04647 413.000
14.08703 377.000
14.12759 404.000
14.16815 434.000
14.20871 431.000
14.24927 442.000
14.28983 383.000
14.33039 446.000
14.37096 483.000
14.41152 503.000
14.45208 563.000
14.49264 614.000
14.53320 844.000
14.57376 1047.000
14.61432 1582.000
14.65488 2141.000
14.69544 2259.000
14.73600 1639.000
14.77656 1168.000
14.81712 995.000
14.85768 1138.000
14.89824 1364.000
14.93880 1457.000
14.97936 1123.000
15.01992 790.000
15.06048 551.000
15.10104 485.000
15.14160 474.000
15.18216 434.000
15.22272 451.000
15.26328 435.000
15.30384 446.000
15.34440 427.000
15.38496 368.000
15.42552 431.000
15.46608 448.000
15.50664 433.000
15.54720 457.000
15.58776 471.000
15.62832 489.000
15.66888 439.000
15.70944 495.000
15.75000 444.000
15.79056 493.000
15.83112 461.000
15.87168 490.000
15.91224 517.000
15.95280 578.000
15.99336 623.000
16.03392 688.000
16.07448 668.000
16.11504 796.000
16.15560 794.000
16.19616 1010.000
16.23672 1320.000
16.27729 1720.000
16.31785 2536.000
16.35841 3129.000
16.39897 3172.000
16.43953 2723.000
16.48009 2152.000
16.52065 1704.000
16.56121 1770.000
16.60177 1946.000
16.64233 2067.000
16.68289 2106.000
16.72345 2295.000
16.76401 2709.000
16.80457 2815.000
16.84513 2564.000
16.88569 1897.000
16.92625 1776.000
16.96681 2071.000
17.00737 2735.000
17.04793 3537.000
17.08849 4491.000
17.12905 4471.000
17.16961 3781.000
17.21017 2516.000
17.25073 1754.000
17.29129 1279.000
17.33185 1147.000
17.37241 960.000
17.41297 851.000
17.45353 835.000
17.49409 729.000
17.53465 762.000
17.57521 807.000
17.61577 837.000
17.65633 917.000
17.69689 993.000
17.73745 1122.000
17.77801 1210.000
17.81857 1192.000
17.85913 1439.000
17.89969 1797.000
17.94025 2481.000
17.98081 3431.000
18.02137 4873.000
18.06193 6104.000
18.10249 6680.000
18.14305 6118.000
18.18362 4358.000
18.22418 3003.000
18.26474 2108.000
18.30530 1648.000
18.34586 1459.000
18.38642 1361.000
18.42698 1262.000
18.46754 1350.000
18.50810 1457.000
18.54866 1753.000
18.58922 2122.000
18.62978 2773.000
18.67034 3231.000
18.71090 3475.000
18.75146 3054.000
18.79202 2474.000
18.83258 1930.000
18.87314 1569.000
18.91370 1465.000
18.95426 1441.000
18.99482 1549.000
19.03538 1637.000
19.07594 1474.000
19.11650 1318.000
19.15706 1077.000
19.19762 1021.000
19.23818 1009.000
19.27874 1141.000
19.31930 1321.000
19.35986 1574.000
19.40042 2184.000
19.44098 2845.000
19.48154 3618.000
19.52210 3986.000
19.56266 3581.000
19.60322 2857.000
19.64378 2065.000
19.68434 1950.000
19.72490 1858.000
19.76546 2140.000
19.80602 2489.000
19.84658 3047.000
19.88714 3669.000
19.92770 4147.000
19.96826 3862.000
20.00882 3043.000
20.04938 2625.000
20.08995 2381.000
20.13051 2412.000
20.17107 2671.000
20.21163 2886.000
20.25219 3097.000
20.29275 3563.000
20.33331 4018.000
20.37387 4172.000
20.41443 3032.000
20.45499 2070.000
20.49555 1511.000
20.53611 1265.000
20.57667 1231.000
20.61723 1142.000
20.65779 1093.000
20.69835 1042.000
20.73891 901.000
20.77947 902.000
20.82003 878.000
20.86059 988.000
20.90115 953.000
20.94171 990.000
20.98227 1107.000
21.02283 1240.000
21.06339 1356.000
21.10395 1565.000
21.14451 1863.000
21.18507 2112.000
21.22563 2679.000
21.26619 3375.000
21.30675 4373.000
21.34731 5819.000
21.38787 7064.000
21.42843 8419.000
21.46899 8917.000
21.50955 9531.000
21.55011 9957.000
21.59067 9517.000
21.63123 8750.000
21.67179 7389.000
21.71235 5981.000
21.75291 4171.000
21.79347 2919.000
21.83403 2023.000
21.87459 1576.000
21.91515 1302.000
21.95571 1146.000
21.99628 1059.000
22.03684 963.000
22.07740 938.000
22.11796 1003.000
22.15852 988.000
22.19908 935.000
22.23964 945.000
22.28020 961.000
22.32076 1048.000
22.36132 1104.000
22.40188 1210.000
22.44244 1373.000
22.48300 1394.000
22.52356 1500.000
22.56412 1381.000
22.60468 1251.000
22.64524 1103.000
22.68580 1106.000
22.72636 1143.000
22.76692 1148.000
22.80748 1208.000
22.84804 1454.000
22.88860 1495.000
22.92916 1515.000
22.96972 1515.000
23.01028 1510.000
23.05084 1254.000
23.09140 1073.000
23.13196 938.000
23.17252 1029.000
23.21308 1033.000
23.25364 1153.000
23.29420 1266.000
23.33476 1532.000
23.37532 1927.000
23.41588 2218.000
23.45644 2758.000
23.49700 3087.000
23.53756 3109.000
23.57812 2986.000
23.61868 2561.000
23.65924 2141.000
23.69980 1800.000
23.74036 1691.000
23.78092 1538.000
23.82148 1406.000
23.86204 1326.000
23.90261 1154.000
23.94317 1010.000
23.98373 961.000
24.02429 911.000
24.06485 848.000
24.10541 863.000
24.14597 931.000
24.18653 1100.000
24.22709 1191.000
24.26765 1441.000
24.30821 1625.000
24.34877 1927.000
24.38933 2210.000
24.42989 2113.000
24.47045 1841.000
24.51101 1447.000
24.55157 1141.000
24.59213 1022.000
24.63269 1035.000
24.67325 1067.000
24.71381 1214.000
24.75437 1234.000
24.79493 1187.000
24.83549 1060.000
24.87605 983.000
24.91661 889.000
24.95717 943.000
24.99773 951.000
25.03829 1053.000
25.07885 1309.000
25.11941 1456.000
25.15997 1573.000
25.20053 1787.000
25.24109 1818.000
25.28165 1694.000
25.32221 1538.000
25.36277 1428.000
25.40333 1373.000
25.44389 1391.000
25.48445 1365.000
25.52501 1189.000
25.56557 1081.000
25.60613 943.000
25.64669 846.000
25.68725 848.000
25.72781 840.000
25.76837 809.000
25.80893 869.000
25.84950 971.000
25.89006 1078.000
25.93062 1273.000
25.97118 1431.000
26.01174 1534.000
26.05230 1775.000
26.09286 1750.000
26.13342 1543.000
26.17398 1451.000
26.21454 1241.000
26.25510 1139.000
26.29566 1117.000
26.33622 1154.000
26.37678 1209.000
26.41734 1247.000
26.45790 1390.000
26.49846 1529.000
26.53902 1651.000
26.57958 1592.000
26.62014 1509.000
26.66070 1547.000
26.70126 1405.000
26.74182 1273.000
26.78238 1311.000
26.82294 1315.000
26.86350 1421.000
26.90406 1658.000
26.94462 1677.000
26.98518 1646.000
27.02574 1700.000
27.06630 1603.000
27.10686 1366.000
27.14742 1391.000
27.18798 1338.000
27.22854 1251.000
27.26910 1208.000
27.30966 1124.000
27.35022 1194.000
27.39078 1257.000
27.43134 1248.000
27.47190 1250.000
27.51246 1266.000
27.55302 1086.000
27.59358 970.000
27.63414 891.000
27.67470 752.000
27.71526 642.000
27.75583 606.000
27.79639 571.000
27.83695 588.000
27.87751 574.000
27.91807 516.000
27.95863 525.000
27.99919 592.000
28.03975 586.000
28.08031 566.000
28.12087 627.000
28.16143 671.000
28.20199 712.000
28.24255 716.000
28.28311 792.000
28.32367 849.000
28.36423 1009.000
28.40479 1033.000
28.44535 1061.000
28.48591 1135.000
28.52647 1196.000
28.56703 1190.000
28.60759 1162.000
28.64815 1059.000
28.68871 963.000
28.72927 936.000
28.76983 778.000
28.81039 858.000
28.85095 832.000
28.89151 830.000
28.93207 891.000
28.97263 1000.000
29.01319 1034.000
29.05375 1104.000
29.09431 1066.000
29.13487 1002.000
29.17543 995.000
29.21599 947.000
29.25655 923.000
29.29711 903.000
29.33767 974.000
29.37823 975.000
29.41879 908.000
29.45935 920.000
29.49991 895.000
29.54047 816.000
29.58103 894.000
29.62159 914.000
29.66216 953.000
29.70272 944.000
29.74328 1032.000
29.78384 1003.000
29.82440 1071.000
29.86496 1013.000
29.90552 1130.000
29.94608 1072.000
29.98664 1025.000
30.02720 1008.000
30.06776 987.000
30.10832 946.000
30.14888 854.000
30.18944 783.000
30.23000 701.000
30.27056 705.000
30.31112 749.000
30.35168 825.000
30.39224 863.000
30.43280 839.000
30.47336 835.000
30.51392 794.000
30.55448 713.000
30.59504 594.000
30.63560 551.000
30.67616 519.000
30.71672 552.000
30.75728 501.000
30.79784 537.000
30.83840 539.000
30.87896 559.000
30.91952 578.000
30.96008 632.000
31.00064 670.000
31.04120 692.000
31.08176 737.000
31.12232 756.000
31.16288 763.000
31.20344 744.000
31.24400 755.000
31.28456 655.000
31.32512 607.000
31.36568 575.000
31.40624 578.000
31.44680 561.000
31.48736 546.000
31.52792 541.000
31.56849 589.000
31.60905 607.000
31.64961 646.000
31.69017 614.000
31.73073 649.000
31.77129 693.000
31.81185 686.000
31.85241 724.000
31.89297 712.000
31.93353 698.000
31.97409 777.000
32.01465 770.000
32.05521 727.000
32.09577 638.000
32.13633 623.000
32.17689 634.000
32.21745 618.000
32.25801 572.000
32.29857 574.000
32.33913 580.000
32.37969 547.000
32.42025 543.000
32.46081 539.000
32.50137 559.000
32.54193 526.000
32.58249 474.000
32.62305 498.000
32.66361 516.000
32.70417 543.000
32.74473 564.000
32.78529 600.000
32.82585 551.000
32.86641 636.000
32.90697 633.000
32.94753 676.000
32.98809 671.000
33.02865 661.000
33.06921 700.000
33.10977 693.000
33.15033 713.000
33.19089 671.000
33.23145 639.000
33.27201 736.000
33.31257 757.000
33.35313 695.000
33.39369 661.000
33.43425 669.000
33.47482 646.000
33.51538 617.000
33.55594 567.000
33.59650 577.000
33.63706 563.000
33.67762 530.000
33.71818 541.000
33.75874 550.000
33.79930 548.000
33.83986 557.000
33.88042 588.000
33.92098 541.000
33.96154 583.000
34.00210 628.000
34.04266 653.000
34.08322 682.000
34.12378 656.000
34.16434 648.000
34.20490 705.000
34.24546 700.000
34.28602 669.000
34.32658 717.000
34.36714 780.000
34.40770 879.000
34.44826 892.000
34.48882 1008.000
34.52938 1074.000
34.56994 1148.000
34.61050 1169.000
34.65106 1108.000
34.69162 989.000
34.73218 933.000
34.77274 872.000
34.81330 902.000
34.85386 902.000
34.89442 940.000
34.93498 907.000
34.97554 925.000
35.01610 875.000
35.05666 813.000
35.09722 782.000
35.13778 718.000
35.17834 751.000
35.21890 668.000
35.25946 648.000
35.30002 623.000
35.34058 590.000
35.38115 624.000
35.42171 602.000
35.46227 657.000
35.50283 656.000
35.54339 578.000
35.58395 640.000
35.62451 639.000
35.66507 583.000
35.70563 575.000
35.74619 540.000
35.78675 541.000
35.82731 517.000
35.86787 494.000
35.90843 494.000
35.94899 491.000
35.98955 507.000
36.03011 520.000
36.07067 522.000
36.11123 577.000
36.15179 601.000
36.19235 595.000
36.23291 618.000
36.27347 671.000
36.31403 568.000
36.35459 608.000
36.39515 642.000
36.43571 705.000
36.47627 663.000
36.51683 669.000
36.55739 727.000
36.59795 768.000
36.63851 832.000
36.67907 863.000
36.71963 833.000
36.76019 884.000
36.80075 851.000
36.84131 817.000
36.88187 816.000
36.92243 731.000
36.96299 714.000
37.00355 666.000
37.04411 712.000
37.08467 653.000
37.12523 666.000
37.16579 672.000
37.20635 630.000
37.24691 638.000
37.28748 614.000
37.32804 607.000
37.36860 548.000
37.40916 571.000
37.44972 612.000
37.49028 577.000
37.53084 550.000
37.57140 530.000
37.61196 593.000
37.65252 592.000
37.69308 609.000
37.73364 572.000
37.77420 638.000
37.81476 680.000
37.85532 693.000
37.89588 702.000
37.93644 721.000
37.97700 776.000
38.01756 740.000
38.05812 671.000
38.09868 700.000
38.13924 619.000
38.17980 612.000
38.22036 588.000
38.26092 542.000
38.30148 623.000
38.34204 593.000
38.38260 609.000
38.42316 599.000
38.46372 610.000
38.50428 597.000
38.54484 536.000
38.58540 540.000
38.62596 523.000
38.66652 578.000
38.70708 514.000
38.74764 524.000
38.78820 495.000
38.82876 523.000
38.86932 523.000
38.90988 494.000
38.95044 508.000
38.99100 488.000
39.03156 530.000
39.07212 528.000
39.11268 555.000
39.15324 541.000
39.19381 523.000
39.23437 570.000
39.27493 563.000
39.31549 587.000
39.35605 599.000
39.39661 582.000
39.43717 607.000
39.47773 580.000
39.51829 636.000
39.55885 664.000
39.59941 734.000
39.63997 615.000
39.68053 722.000
39.72109 620.000
39.76165 661.000
39.80221 628.000
39.84277 658.000
39.88333 582.000
39.92389 607.000
39.96445 618.000
40.00501 638.000
40.04557 661.000
40.08613 681.000
40.12669 728.000
40.16725 755.000
40.20781 742.000
40.24837 767.000
40.28893 792.000
40.32949 686.000
40.37005 775.000
40.41061 738.000
40.45117 714.000
40.49173 740.000
40.53229 667.000
40.57285 630.000
40.61341 619.000
40.65397 598.000
40.69453 618.000
40.73509 544.000
40.77565 608.000
40.81621 549.000
40.85677 543.000
40.89733 528.000
40.93789 546.000
40.97845 567.000
41.01901 543.000
41.05957 547.000
41.10014 568.000
41.14070 569.000
41.18126 610.000
41.22182 617.000
41.26238 616.000
41.30294 665.000
41.34350 620.000
41.38406 665.000
41.42462 734.000
41.46518 684.000
41.50574 719.000
41.54630 693.000
41.58686 697.000
41.62742 733.000
41.66798 732.000
41.70854 780.000
41.74910 718.000
41.78966 771.000
41.83022 733.000
41.87078 641.000
41.91134 621.000
41.95190 596.000
41.99246 549.000
42.03302 553.000
42.07358 530.000
42.11414 516.000
42.15470 502.000
42.19526 483.000
42.23582 498.000
42.27638 500.000
42.31694 473.000
42.35750 505.000
42.39806 498.000
42.43862 474.000
42.47918 495.000
42.51974 482.000
42.56030 446.000
42.60086 483.000
42.64142 433.000
42.68198 458.000
42.72254 474.000
42.76310 478.000
42.80366 472.000
42.84422 472.000
42.88478 499.000
42.92534 489.000
42.96590 489.000
43.00647 529.000
43.04703 563.000
43.08759 512.000
43.12815 566.000
43.16871 558.000
43.20927 582.000
43.24983 616.000
43.29039 674.000
43.33095 642.000
43.37151 652.000
43.41207 622.000
43.45263 604.000
43.49319 637.000
43.53375 619.000
43.57431 665.000
43.61487 692.000
43.65543 672.000
43.69599 660.000
43.73655 695.000
43.77711 671.000
43.81767 598.000
43.85823 642.000
43.89879 678.000
43.93935 694.000
43.97991 696.000
44.02047 698.000
44.06103 650.000
44.10159 708.000
44.14215 650.000
44.18271 617.000
44.22327 574.000
44.26383 577.000
44.30439 535.000
44.34495 599.000
44.38551 551.000
44.42607 475.000
44.46663 537.000
44.50719 537.000
44.54775 497.000
44.58831 541.000
44.62887 502.000
44.66943 534.000
44.70999 532.000
44.75055 562.000
44.79111 548.000
44.83167 519.000
44.87223 569.000
44.91280 563.000
44.95336 533.000
44.99392 531.000
45.03448 512.000
45.07504 608.000
45.11560 567.000
45.15616 508.000
45.19672 537.000
45.23728 534.000
45.27784 471.000
45.31840 567.000
45.35896 508.000
45.39952 507.000
45.44008 511.000
45.48064 557.000
45.52120 507.000
45.56176 563.000
45.60232 553.000
45.64288 572.000
45.68344 526.000
45.72400 549.000
45.76456 569.000
45.80512 530.000
45.84568 558.000
45.88624 581.000
45.92680 545.000
45.96736 524.000
46.00792 533.000
46.04848 487.000
46.08904 507.000
46.12960 496.000
46.17016 505.000
46.21072 513.000
46.25128 560.000
46.29184 555.000
46.33240 570.000
46.37296 531.000
46.41352 530.000
46.45408 567.000
46.49464 495.000
46.53520 568.000
46.57576 559.000
46.61632 528.000
46.65688 529.000
46.69744 550.000
46.73800 500.000
46.77856 587.000
46.81913 494.000
46.85969 534.000
46.90025 552.000
46.94081 503.000
46.98137 511.000
47.02193 522.000
47.06249 529.000
47.10305 474.000
47.14361 528.000
47.18417 545.000
47.22473 591.000
47.26529 574.000
47.30585 627.000
47.34641 621.000
47.38697 614.000
47.42753 607.000
47.46809 566.000
47.50865 584.000
47.54921 567.000
47.58977 595.000
47.63033 545.000
47.67089 547.000
47.71145 552.000
47.75201 521.000
47.79257 542.000
47.83313 558.000
47.87369 533.000
47.91425 540.000
47.95481 539.000
47.99537 507.000
48.03593 510.000
48.07649 530.000
48.11705 444.000
48.15761 453.000
48.19817 475.000
48.23873 530.000
48.27929 460.000
48.31985 459.000
48.36041 458.000
48.40097 441.000
48.44153 477.000
48.48209 440.000
48.52265 455.000
48.56321 478.000
48.60377 481.000
48.64433 419.000
48.68489 448.000
48.72546 432.000
48.76602 460.000
48.80658 431.000
48.84714 423.000
48.88770 459.000
48.92826 429.000
48.96882 433.000
49.00938 441.000
49.04994 441.000
49.09050 425.000
49.13106 473.000
49.17162 468.000
49.21218 461.000
49.25274 436.000
49.29330 443.000
49.33386 422.000
49.37442 436.000
49.41498 438.000
49.45554 455.000
49.49610 458.000
49.53666 433.000
49.57722 436.000
49.61778 453.000
49.65834 475.000
49.69890 524.000
49.73946 484.000
49.78002 478.000
49.82058 471.000
49.86114 457.000
49.90170 460.000
49.94226 471.000
49.98282 471.000
50.02338 427.000
50.06394 439.000
50.10450 440.000
50.14506 513.000
50.18562 515.000
50.22618 492.000
50.26674 519.000
50.30730 533.000
50.34786 560.000
50.38842 537.000
50.42898 558.000
50.46954 525.000
50.51010 554.000
50.55066 545.000
50.59122 527.000
50.63179 483.000
50.67235 465.000
50.71291 494.000
50.75347 477.000
50.79403 506.000
50.83459 452.000
50.87515 440.000
50.91571 439.000
50.95627 446.000
50.99683 451.000