File: Task01/nick/files/ESI_material_XRD/kinetics/crystal_size_analysis/10ul IPA/2031_RVR_10ul_IPA_5m.xy
5.00155 869.000
5.04211 792.000
5.08267 871.000
5.12323 774.000
5.16379 816.000
5.20435 789.000
5.24491 757.000
5.28547 737.000
5.32603 728.000
5.36659 719.000
5.40715 685.000
5.44771 704.000
5.48827 658.000
5.52883 670.000
5.56939 663.000
5.60995 635.000
5.65051 646.000
5.69107 660.000
5.73163 642.000
5.77219 610.000
5.81275 604.000
5.85331 571.000
5.89387 546.000
5.93443 587.000
5.97499 554.000
6.01555 588.000
6.05611 538.000
6.09667 615.000
6.13723 527.000
6.17779 553.000
6.21835 555.000
6.25891 555.000
6.29947 573.000
6.34003 622.000
6.38059 610.000
6.42115 606.000
6.46171 649.000
6.50227 743.000
6.54283 831.000
6.58339 978.000
6.62395 1252.000
6.66451 1762.000
6.70507 2596.000
6.74564 3812.000
6.78620 5183.000
6.82676 6099.000
6.86732 5900.000
6.90788 4479.000
6.94844 2536.000
6.98900 1521.000
7.02956 1005.000
7.07012 749.000
7.11068 649.000
7.15124 647.000
7.19180 571.000
7.23236 521.000
7.27292 520.000
7.31348 525.000
7.35404 473.000
7.39460 458.000
7.43516 462.000
7.47572 495.000
7.51628 467.000
7.55684 462.000
7.59740 502.000
7.63796 441.000
7.67852 505.000
7.71908 455.000
7.75964 507.000
7.80020 454.000
7.84076 472.000
7.88132 513.000
7.92188 488.000
7.96244 530.000
8.00300 569.000
8.04356 588.000
8.08412 684.000
8.12468 783.000
8.16524 1054.000
8.20580 1394.000
8.24636 1947.000
8.28692 2761.000
8.32748 4357.000
8.36804 5816.000
8.40860 6359.000
8.44916 5087.000
8.48972 3104.000
8.53028 1892.000
8.57084 1286.000
8.61140 1057.000
8.65197 955.000
8.69253 851.000
8.73309 717.000
8.77365 651.000
8.81421 610.000
8.85477 500.000
8.89533 504.000
8.93589 523.000
8.97645 496.000
9.01701 428.000
9.05757 504.000
9.09813 468.000
9.13869 440.000
9.17925 423.000
9.21981 438.000
9.26037 422.000
9.30093 469.000
9.34149 463.000
9.38205 472.000
9.42261 505.000
9.46317 514.000
9.50373 520.000
9.54429 502.000
9.58485 505.000
9.62541 452.000
9.66597 448.000
9.70653 477.000
9.74709 465.000
9.78765 510.000
9.82821 524.000
9.86877 573.000
9.90933 573.000
9.94989 531.000
9.99045 511.000
10.03101 432.000
10.07157 449.000
10.11213 455.000
10.15269 435.000
10.19325 447.000
10.23381 374.000
10.27437 445.000
10.31493 480.000
10.35549 483.000
10.39605 496.000
10.43661 600.000
10.47717 734.000
10.51773 985.000
10.55830 1181.000
10.59886 1265.000
10.63942 1077.000
10.67998 741.000
10.72054 573.000
10.76110 538.000
10.80166 546.000
10.84222 499.000
10.88278 477.000
10.92334 513.000
10.96390 457.000
11.00446 480.000
11.04502 448.000
11.08558 428.000
11.12614 382.000
11.16670 420.000
11.20726 392.000
11.24782 396.000
11.28838 361.000
11.32894 376.000
11.36950 421.000
11.41006 370.000
11.45062 390.000
11.49118 403.000
11.53174 401.000
11.57230 371.000
11.61286 415.000
11.65342 353.000
11.69398 391.000
11.73454 388.000
11.77510 398.000
11.81566 400.000
11.85622 398.000
11.89678 387.000
11.93734 393.000
11.97790 372.000
12.01846 381.000
12.05902 393.000
12.09958 380.000
12.14014 369.000
12.18070 402.000
12.22126 395.000
12.26182 392.000
12.30238 335.000
12.34294 410.000
12.38350 419.000
12.42406 401.000
12.46463 389.000
12.50519 348.000
12.54575 385.000
12.58631 405.000
12.62687 395.000
12.66743 374.000
12.70799 387.000
12.74855 383.000
12.78911 409.000
12.82967 345.000
12.87023 427.000
12.91079 390.000
12.95135 472.000
12.99191 425.000
13.03247 450.000
13.07303 540.000
13.11359 579.000
13.15415 779.000
13.19471 896.000
13.23527 993.000
13.27583 975.000
13.31639 1022.000
13.35695 1133.000
13.39751 1170.000
13.43807 1160.000
13.47863 1251.000
13.51919 1619.000
13.55975 1716.000
13.60031 1709.000
13.64087 1487.000
13.68143 1301.000
13.72199 982.000
13.76255 813.000
13.80311 686.000
13.84367 605.000
13.88423 528.000
13.92479 503.000
13.96535 488.000
14.00591 447.000
14.04647 456.000
14.08703 406.000
14.12759 456.000
14.16815 455.000
14.20871 474.000
14.24927 474.000
14.28983 468.000
14.33039 491.000
14.37096 521.000
14.41152 556.000
14.45208 616.000
14.49264 674.000
14.53320 803.000
14.57376 981.000
14.61432 1464.000
14.65488 2059.000
14.69544 2472.000
14.73600 2290.000
14.77656 1693.000
14.81712 1245.000
14.85768 1288.000
14.89824 1433.000
14.93880 1515.000
14.97936 1545.000
15.01992 1134.000
15.06048 877.000
15.10104 612.000
15.14160 535.000
15.18216 522.000
15.22272 514.000
15.26328 454.000
15.30384 483.000
15.34440 472.000
15.38496 483.000
15.42552 494.000
15.46608 498.000
15.50664 529.000
15.54720 508.000
15.58776 521.000
15.62832 492.000
15.66888 523.000
15.70944 503.000
15.75000 518.000
15.79056 484.000
15.83112 530.000
15.87168 536.000
15.91224 542.000
15.95280 644.000
15.99336 621.000
16.03392 725.000
16.07448 789.000
16.11504 789.000
16.15560 894.000
16.19616 994.000
16.23672 1267.000
16.27729 1739.000
16.31785 2308.000
16.35841 3109.000
16.39897 3590.000
16.43953 3444.000
16.48009 2798.000
16.52065 2275.000
16.56121 1876.000
16.60177 1988.000
16.64233 2218.000
16.68289 2371.000
16.72345 2563.000
16.76401 2804.000
16.80457 3300.000
16.84513 3154.000
16.88569 2654.000
16.92625 2086.000
16.96681 2081.000
17.00737 2654.000
17.04793 3527.000
17.08849 4608.000
17.12905 4948.000
17.16961 4776.000
17.21017 3660.000
17.25073 2585.000
17.29129 1947.000
17.33185 1456.000
17.37241 1222.000
17.41297 1035.000
17.45353 937.000
17.49409 857.000
17.53465 837.000
17.57521 877.000
17.61577 866.000
17.65633 927.000
17.69689 1023.000
17.73745 1072.000
17.77801 1335.000
17.81857 1378.000
17.85913 1509.000
17.89969 1727.000
17.94025 2240.000
17.98081 3076.000
18.02137 4353.000
18.06193 5940.000
18.10249 7173.000
18.14305 7118.000
18.18362 6234.000
18.22418 4460.000
18.26474 3163.000
18.30530 2295.000
18.34586 1848.000
18.38642 1755.000
18.42698 1543.000
18.46754 1527.000
18.50810 1483.000
18.54866 1695.000
18.58922 2073.000
18.62978 2619.000
18.67034 3216.000
18.71090 3663.000
18.75146 3652.000
18.79202 3235.000
18.83258 2480.000
18.87314 2161.000
18.91370 1771.000
18.95426 1680.000
18.99482 1743.000
19.03538 1783.000
19.07594 1834.000
19.11650 1708.000
19.15706 1358.000
19.19762 1239.000
19.23818 1162.000
19.27874 1261.000
19.31930 1391.000
19.35986 1618.000
19.40042 2052.000
19.44098 2697.000
19.48154 3522.000
19.52210 4253.000
19.56266 4327.000
19.60322 3847.000
19.64378 2954.000
19.68434 2414.000
19.72490 2171.000
19.76546 2221.000
19.80602 2542.000
19.84658 2897.000
19.88714 3808.000
19.92770 4392.000
19.96826 4472.000
20.00882 3960.000
20.04938 3291.000
20.08995 2828.000
20.13051 2715.000
20.17107 2900.000
20.21163 3163.000
20.25219 3472.000
20.29275 3677.000
20.33331 4267.000
20.37387 4837.000
20.41443 4245.000
20.45499 3055.000
20.49555 2123.000
20.53611 1624.000
20.57667 1498.000
20.61723 1401.000
20.65779 1284.000
20.69835 1199.000
20.73891 1078.000
20.77947 968.000
20.82003 980.000
20.86059 1033.000
20.90115 1056.000
20.94171 1135.000
20.98227 1193.000
21.02283 1226.000
21.06339 1442.000
21.10395 1628.000
21.14451 1804.000
21.18507 2188.000
21.22563 2686.000
21.26619 3300.000
21.30675 4230.000
21.34731 5429.000
21.38787 6976.000
21.42843 8487.000
21.46899 9410.000
21.50955 10457.000
21.55011 10727.000
21.59067 10921.000
21.63123 10515.000
21.67179 9443.000
21.71235 7915.000
21.75291 6154.000
21.79347 4341.000
21.83403 3038.000
21.87459 2299.000
21.91515 1743.000
21.95571 1447.000
21.99628 1325.000
22.03684 1208.000
22.07740 1155.000
22.11796 1014.000
22.15852 1038.000
22.19908 1008.000
22.23964 1029.000
22.28020 1082.000
22.32076 1161.000
22.36132 1136.000
22.40188 1226.000
22.44244 1361.000
22.48300 1595.000
22.52356 1638.000
22.56412 1621.000
22.60468 1486.000
22.64524 1350.000
22.68580 1208.000
22.72636 1129.000
22.76692 1342.000
22.80748 1322.000
22.84804 1403.000
22.88860 1525.000
22.92916 1629.000
22.96972 1573.000
23.01028 1637.000
23.05084 1495.000
23.09140 1450.000
23.13196 1232.000
23.17252 1106.000
23.21308 1082.000
23.25364 1113.000
23.29420 1306.000
23.33476 1472.000
23.37532 1775.000
23.41588 2177.000
23.45644 2661.000
23.49700 2992.000
23.53756 3377.000
23.57812 3586.000
23.61868 3209.000
23.65924 2805.000
23.69980 2308.000
23.74036 2012.000
23.78092 1740.000
23.82148 1700.000
23.86204 1577.000
23.90261 1375.000
23.94317 1258.000
23.98373 1148.000
24.02429 1060.000
24.06485 1011.000
24.10541 987.000
24.14597 1023.000
24.18653 1069.000
24.22709 1222.000
24.26765 1355.000
24.30821 1558.000
24.34877 1891.000
24.38933 2297.000
24.42989 2474.000
24.47045 2234.000
24.51101 1927.000
24.55157 1522.000
24.59213 1202.000
24.63269 1108.000
24.67325 1146.000
24.71381 1213.000
24.75437 1343.000
24.79493 1363.000
24.83549 1249.000
24.87605 1128.000
24.91661 1016.000
24.95717 998.000
24.99773 1045.000
25.03829 1073.000
25.07885 1233.000
25.11941 1430.000
25.15997 1743.000
25.20053 1731.000
25.24109 1979.000
25.28165 1921.000
25.32221 1783.000
25.36277 1712.000
25.40333 1613.000
25.44389 1572.000
25.48445 1541.000
25.52501 1367.000
25.56557 1301.000
25.60613 1171.000
25.64669 1001.000
25.68725 939.000
25.72781 907.000
25.76837 918.000
25.80893 994.000
25.84950 1037.000
25.89006 1190.000
25.93062 1264.000
25.97118 1426.000
26.01174 1726.000
26.05230 1782.000
26.09286 1871.000
26.13342 1859.000
26.17398 1652.000
26.21454 1571.000
26.25510 1421.000
26.29566 1230.000
26.33622 1298.000
26.37678 1283.000
26.41734 1312.000
26.45790 1410.000
26.49846 1504.000
26.53902 1580.000
26.57958 1619.000
26.62014 1650.000
26.66070 1631.000
26.70126 1683.000
26.74182 1485.000
26.78238 1346.000
26.82294 1431.000
26.86350 1483.000
26.90406 1660.000
26.94462 1816.000
26.98518 1860.000
27.02574 1751.000
27.06630 1764.000
27.10686 1695.000
27.14742 1530.000
27.18798 1525.000
27.22854 1292.000
27.26910 1310.000
27.30966 1293.000
27.35022 1263.000
27.39078 1243.000
27.43134 1385.000
27.47190 1362.000
27.51246 1283.000
27.55302 1358.000
27.59358 1216.000
27.63414 962.000
27.67470 937.000
27.71526 755.000
27.75583 682.000
27.79639 685.000
27.83695 637.000
27.87751 605.000
27.91807 608.000
27.95863 592.000
27.99919 628.000
28.03975 590.000
28.08031 629.000
28.12087 564.000
28.16143 686.000
28.20199 689.000
28.24255 754.000
28.28311 821.000
28.32367 898.000
28.36423 991.000
28.40479 1102.000
28.44535 1116.000
28.48591 1205.000
28.52647 1268.000
28.56703 1260.000
28.60759 1225.000
28.64815 1206.000
28.68871 1137.000
28.72927 1006.000
28.76983 956.000
28.81039 869.000
28.85095 831.000
28.89151 924.000
28.93207 947.000
28.97263 1041.000
29.01319 1059.000
29.05375 1116.000
29.09431 1163.000
29.13487 1150.000
29.17543 1147.000
29.21599 989.000
29.25655 1012.000
29.29711 995.000
29.33767 1026.000
29.37823 1094.000
29.41879 1037.000
29.45935 944.000
29.49991 978.000
29.54047 1000.000
29.58103 952.000
29.62159 994.000
29.66216 1049.000
29.70272 1034.000
29.74328 1035.000
29.78384 1103.000
29.82440 1144.000
29.86496 1171.000
29.90552 1202.000
29.94608 1111.000
29.98664 1076.000
30.02720 1133.000
30.06776 1097.000
30.10832 1083.000
30.14888 921.000
30.18944 891.000
30.23000 877.000
30.27056 785.000
30.31112 793.000
30.35168 798.000
30.39224 896.000
30.43280 977.000
30.47336 922.000
30.51392 873.000
30.55448 826.000
30.59504 703.000
30.63560 643.000
30.67616 603.000
30.71672 557.000
30.75728 588.000
30.79784 604.000
30.83840 586.000
30.87896 597.000
30.91952 617.000
30.96008 638.000
31.00064 647.000
31.04120 721.000
31.08176 773.000
31.12232 792.000
31.16288 836.000
31.20344 796.000
31.24400 814.000
31.28456 710.000
31.32512 730.000
31.36568 675.000
31.40624 632.000
31.44680 586.000
31.48736 648.000
31.52792 625.000
31.56849 594.000
31.60905 684.000
31.64961 655.000
31.69017 683.000
31.73073 725.000
31.77129 694.000
31.81185 684.000
31.85241 740.000
31.89297 752.000
31.93353 749.000
31.97409 764.000
32.01465 845.000
32.05521 763.000
32.09577 762.000
32.13633 711.000
32.17689 763.000
32.21745 706.000
32.25801 701.000
32.29857 627.000
32.33913 642.000
32.37969 633.000
32.42025 601.000
32.46081 605.000
32.50137 629.000
32.54193 539.000
32.58249 563.000
32.62305 533.000
32.66361 521.000
32.70417 581.000
32.74473 614.000
32.78529 671.000
32.82585 657.000
32.86641 635.000
32.90697 668.000
32.94753 673.000
32.98809 722.000
33.02865 683.000
33.06921 688.000
33.10977 725.000
33.15033 680.000
33.19089 744.000
33.23145 714.000
33.27201 774.000
33.31257 751.000
33.35313 801.000
33.39369 819.000
33.43425 838.000
33.47482 789.000
33.51538 720.000
33.55594 620.000
33.59650 638.000
33.63706 641.000
33.67762 563.000
33.71818 557.000
33.75874 577.000
33.79930 533.000
33.83986 558.000
33.88042 597.000
33.92098 586.000
33.96154 627.000
34.00210 638.000
34.04266 662.000
34.08322 680.000
34.12378 716.000
34.16434 674.000
34.20490 705.000
34.24546 724.000
34.28602 719.000
34.32658 802.000
34.36714 805.000
34.40770 837.000
34.44826 885.000
34.48882 929.000
34.52938 1147.000
34.56994 1227.000
34.61050 1271.000
34.65106 1156.000
34.69162 1190.000
34.73218 1053.000
34.77274 991.000
34.81330 906.000
34.85386 861.000
34.89442 938.000
34.93498 965.000
34.97554 1033.000
35.01610 911.000
35.05666 900.000
35.09722 852.000
35.13778 796.000
35.17834 764.000
35.21890 734.000
35.25946 656.000
35.30002 657.000
35.34058 667.000
35.38115 678.000
35.42171 654.000
35.46227 667.000
35.50283 646.000
35.54339 680.000
35.58395 665.000
35.62451 630.000
35.66507 596.000
35.70563 597.000
35.74619 568.000
35.78675 597.000
35.82731 574.000
35.86787 507.000
35.90843 492.000
35.94899 509.000
35.98955 515.000
36.03011 551.000
36.07067 562.000
36.11123 555.000
36.15179 579.000
36.19235 625.000
36.23291 637.000
36.27347 647.000
36.31403 636.000
36.35459 713.000
36.39515 681.000
36.43571 726.000
36.47627 722.000
36.51683 785.000
36.55739 773.000
36.59795 781.000
36.63851 848.000
36.67907 865.000
36.71963 907.000
36.76019 866.000
36.80075 861.000
36.84131 917.000
36.88187 916.000
36.92243 803.000
36.96299 813.000
37.00355 749.000
37.04411 766.000
37.08467 757.000
37.12523 717.000
37.16579 713.000
37.20635 702.000
37.24691 659.000
37.28748 655.000
37.32804 651.000
37.36860 615.000
37.40916 604.000
37.44972 611.000
37.49028 602.000
37.53084 621.000
37.57140 599.000
37.61196 648.000
37.65252 612.000
37.69308 638.000
37.73364 618.000
37.77420 649.000
37.81476 685.000
37.85532 687.000
37.89588 734.000
37.93644 710.000
37.97700 701.000
38.01756 770.000
38.05812 752.000
38.09868 749.000
38.13924 704.000
38.17980 682.000
38.22036 646.000
38.26092 636.000
38.30148 604.000
38.34204 612.000
38.38260 617.000
38.42316 586.000
38.46372 594.000
38.50428 671.000
38.54484 601.000
38.58540 563.000
38.62596 576.000
38.66652 570.000
38.70708 564.000
38.74764 532.000
38.78820 547.000
38.82876 547.000
38.86932 524.000
38.90988 521.000
38.95044 560.000
38.99100 525.000
39.03156 527.000
39.07212 520.000
39.11268 554.000
39.15324 562.000
39.19381 564.000
39.23437 542.000
39.27493 571.000
39.31549 559.000
39.35605 617.000
39.39661 632.000
39.43717 634.000
39.47773 636.000
39.51829 638.000
39.55885 683.000
39.59941 669.000
39.63997 675.000
39.68053 732.000
39.72109 753.000
39.76165 731.000
39.80221 696.000
39.84277 646.000
39.88333 649.000
39.92389 660.000
39.96445 629.000
40.00501 619.000
40.04557 655.000
40.08613 712.000
40.12669 767.000
40.16725 763.000
40.20781 733.000
40.24837 831.000
40.28893 830.000
40.32949 826.000
40.37005 752.000
40.41061 746.000
40.45117 821.000
40.49173 714.000
40.53229 732.000
40.57285 674.000
40.61341 629.000
40.65397 655.000
40.69453 614.000
40.73509 563.000
40.77565 555.000
40.81621 540.000
40.85677 536.000
40.89733 596.000
40.93789 569.000
40.97845 519.000
41.01901 564.000
41.05957 603.000
41.10014 596.000
41.14070 577.000
41.18126 564.000
41.22182 574.000
41.26238 641.000
41.30294 608.000
41.34350 628.000
41.38406 677.000
41.42462 694.000
41.46518 669.000
41.50574 769.000
41.54630 739.000
41.58686 724.000
41.62742 756.000
41.66798 733.000
41.70854 702.000
41.74910 760.000
41.78966 725.000
41.83022 788.000
41.87078 720.000
41.91134 692.000
41.95190 573.000
41.99246 620.000
42.03302 617.000
42.07358 536.000
42.11414 561.000
42.15470 532.000
42.19526 526.000
42.23582 511.000
42.27638 515.000
42.31694 533.000
42.35750 517.000
42.39806 515.000
42.43862 535.000
42.47918 501.000
42.51974 475.000
42.56030 462.000
42.60086 448.000
42.64142 478.000
42.68198 441.000
42.72254 421.000
42.76310 479.000
42.80366 474.000
42.84422 481.000
42.88478 496.000
42.92534 510.000
42.96590 514.000
43.00647 547.000
43.04703 527.000
43.08759 531.000
43.12815 582.000
43.16871 606.000
43.20927 570.000
43.24983 658.000
43.29039 657.000
43.33095 658.000
43.37151 656.000
43.41207 674.000
43.45263 661.000
43.49319 677.000
43.53375 672.000
43.57431 639.000
43.61487 661.000
43.65543 666.000
43.69599 638.000
43.73655 667.000
43.77711 658.000
43.81767 708.000
43.85823 654.000
43.89879 661.000
43.93935 699.000
43.97991 675.000
44.02047 671.000
44.06103 730.000
44.10159 652.000
44.14215 685.000
44.18271 680.000
44.22327 653.000
44.26383 624.000
44.30439 616.000
44.34495 542.000
44.38551 566.000
44.42607 574.000
44.46663 560.000
44.50719 551.000
44.54775 544.000
44.58831 504.000
44.62887 517.000
44.66943 542.000
44.70999 559.000
44.75055 530.000
44.79111 586.000
44.83167 596.000
44.87223 553.000
44.91280 537.000
44.95336 540.000
44.99392 575.000
45.03448 571.000
45.07504 555.000
45.11560 583.000
45.15616 530.000
45.19672 522.000
45.23728 543.000
45.27784 512.000
45.31840 527.000
45.35896 482.000
45.39952 544.000
45.44008 535.000
45.48064 569.000
45.52120 552.000
45.56176 575.000
45.60232 522.000
45.64288 554.000
45.68344 533.000
45.72400 537.000
45.76456 572.000
45.80512 535.000
45.84568 609.000
45.88624 550.000
45.92680 535.000
45.96736 531.000
46.00792 509.000
46.04848 508.000
46.08904 538.000
46.12960 556.000
46.17016 506.000
46.21072 540.000
46.25128 539.000
46.29184 538.000
46.33240 539.000
46.37296 592.000
46.41352 536.000
46.45408 552.000
46.49464 527.000
46.53520 569.000
46.57576 588.000
46.61632 591.000
46.65688 605.000
46.69744 564.000
46.73800 528.000
46.77856 569.000
46.81913 555.000
46.85969 501.000
46.90025 557.000
46.94081 528.000
46.98137 519.000
47.02193 512.000
47.06249 504.000
47.10305 524.000
47.14361 563.000
47.18417 527.000
47.22473 564.000
47.26529 575.000
47.30585 598.000
47.34641 593.000
47.38697 579.000
47.42753 630.000
47.46809 586.000
47.50865 557.000
47.54921 630.000
47.58977 598.000
47.63033 576.000
47.67089 579.000
47.71145 550.000
47.75201 562.000
47.79257 515.000
47.83313 521.000
47.87369 525.000
47.91425 510.000
47.95481 521.000
47.99537 510.000
48.03593 538.000
48.07649 497.000
48.11705 483.000
48.15761 490.000
48.19817 452.000
48.23873 472.000
48.27929 461.000
48.31985 509.000
48.36041 469.000
48.40097 471.000
48.44153 462.000
48.48209 467.000
48.52265 489.000
48.56321 489.000
48.60377 468.000
48.64433 462.000
48.68489 471.000
48.72546 443.000
48.76602 465.000
48.80658 413.000
48.84714 426.000
48.88770 417.000
48.92826 428.000
48.96882 454.000
49.00938 424.000
49.04994 413.000
49.09050 443.000
49.13106 407.000
49.17162 476.000
49.21218 471.000
49.25274 479.000
49.29330 485.000
49.33386 510.000
49.37442 467.000
49.41498 495.000
49.45554 474.000
49.49610 439.000
49.53666 443.000
49.57722 457.000
49.61778 484.000
49.65834 498.000
49.69890 500.000
49.73946 474.000
49.78002 459.000
49.82058 485.000
49.86114 462.000
49.90170 436.000
49.94226 467.000
49.98282 477.000
50.02338 470.000
50.06394 457.000
50.10450 476.000
50.14506 486.000
50.18562 527.000
50.22618 489.000
50.26674 527.000
50.30730 546.000
50.34786 519.000
50.38842 561.000
50.42898 586.000
50.46954 558.000
50.51010 567.000
50.55066 580.000
50.59122 525.000
50.63179 491.000
50.67235 543.000
50.71291 495.000
50.75347 478.000
50.79403 456.000
50.83459 476.000
50.87515 452.000
50.91571 488.000
50.95627 471.000
50.99683 470.000