File: Task01/nick/files/ESI_material_XRD/kinetics/crystal_size_analysis/10ul IPA/2033_RVR_10ul_IPA_1m.xy
5.00155 856.000
5.04211 834.000
5.08267 814.000
5.12323 827.000
5.16379 788.000
5.20435 751.000
5.24491 779.000
5.28547 758.000
5.32603 742.000
5.36659 749.000
5.40715 695.000
5.44771 748.000
5.48827 659.000
5.52883 654.000
5.56939 642.000
5.60995 614.000
5.65051 666.000
5.69107 620.000
5.73163 586.000
5.77219 636.000
5.81275 645.000
5.85331 641.000
5.89387 582.000
5.93443 601.000
5.97499 582.000
6.01555 582.000
6.05611 564.000
6.09667 562.000
6.13723 561.000
6.17779 556.000
6.21835 578.000
6.25891 593.000
6.29947 551.000
6.34003 595.000
6.38059 626.000
6.42115 633.000
6.46171 698.000
6.50227 772.000
6.54283 906.000
6.58339 1149.000
6.62395 1605.000
6.66451 2450.000
6.70507 3654.000
6.74564 5249.000
6.78620 6334.000
6.82676 6104.000
6.86732 4550.000
6.90788 2404.000
6.94844 1118.000
6.98900 841.000
7.02956 705.000
7.07012 650.000
7.11068 659.000
7.15124 518.000
7.19180 493.000
7.23236 512.000
7.27292 460.000
7.31348 478.000
7.35404 494.000
7.39460 462.000
7.43516 450.000
7.47572 470.000
7.51628 490.000
7.55684 500.000
7.59740 446.000
7.63796 452.000
7.67852 509.000
7.71908 464.000
7.75964 486.000
7.80020 424.000
7.84076 461.000
7.88132 510.000
7.92188 435.000
7.96244 516.000
8.00300 567.000
8.04356 564.000
8.08412 731.000
8.12468 899.000
8.16524 1224.000
8.20580 1717.000
8.24636 2472.000
8.28692 3875.000
8.32748 5952.000
8.36804 6943.000
8.40860 5695.000
8.44916 3063.000
8.48972 1461.000
8.53028 1019.000
8.57084 924.000
8.61140 980.000
8.65197 814.000
8.69253 691.000
8.73309 585.000
8.77365 525.000
8.81421 512.000
8.85477 446.000
8.89533 441.000
8.93589 438.000
8.97645 483.000
9.01701 471.000
9.05757 445.000
9.09813 411.000
9.13869 459.000
9.17925 419.000
9.21981 433.000
9.26037 411.000
9.30093 415.000
9.34149 464.000
9.38205 443.000
9.42261 500.000
9.46317 519.000
9.50373 564.000
9.54429 464.000
9.58485 431.000
9.62541 411.000
9.66597 396.000
9.70653 407.000
9.74709 465.000
9.78765 504.000
9.82821 545.000
9.86877 626.000
9.90933 494.000
9.94989 459.000
9.99045 434.000
10.03101 431.000
10.07157 410.000
10.11213 463.000
10.15269 380.000
10.19325 403.000
10.23381 418.000
10.27437 422.000
10.31493 428.000
10.35549 448.000
10.39605 515.000
10.43661 692.000
10.47717 901.000
10.51773 1270.000
10.55830 1340.000
10.59886 1035.000
10.63942 689.000
10.67998 527.000
10.72054 448.000
10.76110 435.000
10.80166 435.000
10.84222 448.000
10.88278 445.000
10.92334 516.000
10.96390 467.000
11.00446 469.000
11.04502 386.000
11.08558 328.000
11.12614 386.000
11.16670 350.000
11.20726 330.000
11.24782 351.000
11.28838 337.000
11.32894 397.000
11.36950 370.000
11.41006 369.000
11.45062 362.000
11.49118 355.000
11.53174 347.000
11.57230 356.000
11.61286 360.000
11.65342 354.000
11.69398 378.000
11.73454 320.000
11.77510 356.000
11.81566 350.000
11.85622 355.000
11.89678 386.000
11.93734 362.000
11.97790 342.000
12.01846 367.000
12.05902 382.000
12.09958 360.000
12.14014 369.000
12.18070 353.000
12.22126 375.000
12.26182 365.000
12.30238 362.000
12.34294 360.000
12.38350 366.000
12.42406 350.000
12.46463 345.000
12.50519 381.000
12.54575 356.000
12.58631 349.000
12.62687 367.000
12.66743 332.000
12.70799 371.000
12.74855 379.000
12.78911 369.000
12.82967 406.000
12.87023 381.000
12.91079 359.000
12.95135 413.000
12.99191 468.000
13.03247 461.000
13.07303 530.000
13.11359 674.000
13.15415 836.000
13.19471 930.000
13.23527 912.000
13.27583 966.000
13.31639 1070.000
13.35695 1119.000
13.39751 1024.000
13.43807 1113.000
13.47863 1333.000
13.51919 1590.000
13.55975 1725.000
13.60031 1469.000
13.64087 1138.000
13.68143 968.000
13.72199 837.000
13.76255 609.000
13.80311 557.000
13.84367 472.000
13.88423 463.000
13.92479 388.000
13.96535 408.000
14.00591 430.000
14.04647 397.000
14.08703 454.000
14.12759 395.000
14.16815 424.000
14.20871 469.000
14.24927 459.000
14.28983 434.000
14.33039 409.000
14.37096 462.000
14.41152 510.000
14.45208 517.000
14.49264 620.000
14.53320 775.000
14.57376 1227.000
14.61432 1864.000
14.65488 2327.000
14.69544 2467.000
14.73600 1545.000
14.77656 1041.000
14.81712 1007.000
14.85768 1180.000
14.89824 1456.000
14.93880 1555.000
14.97936 1184.000
15.01992 777.000
15.06048 581.000
15.10104 516.000
15.14160 479.000
15.18216 462.000
15.22272 460.000
15.26328 458.000
15.30384 403.000
15.34440 403.000
15.38496 430.000
15.42552 457.000
15.46608 449.000
15.50664 460.000
15.54720 460.000
15.58776 488.000
15.62832 485.000
15.66888 492.000
15.70944 441.000
15.75000 490.000
15.79056 455.000
15.83112 479.000
15.87168 517.000
15.91224 504.000
15.95280 559.000
15.99336 649.000
16.03392 709.000
16.07448 781.000
16.11504 810.000
16.15560 837.000
16.19616 977.000
16.23672 1335.000
16.27729 1937.000
16.31785 2893.000
16.35841 3579.000
16.39897 3478.000
16.43953 2748.000
16.48009 1908.000
16.52065 1489.000
16.56121 1646.000
16.60177 1918.000
16.64233 2195.000
16.68289 2180.000
16.72345 2449.000
16.76401 2990.000
16.80457 3200.000
16.84513 2649.000
16.88569 1894.000
16.92625 1580.000
16.96681 2069.000
17.00737 2822.000
17.04793 4048.000
17.08849 4972.000
17.12905 4888.000
17.16961 3497.000
17.21017 2128.000
17.25073 1477.000
17.29129 1168.000
17.33185 1131.000
17.37241 924.000
17.41297 898.000
17.45353 770.000
17.49409 735.000
17.53465 685.000
17.57521 743.000
17.61577 804.000
17.65633 872.000
17.69689 1089.000
17.73745 1244.000
17.77801 1257.000
17.81857 1183.000
17.85913 1400.000
17.89969 1802.000
17.94025 2509.000
17.98081 3680.000
18.02137 5489.000
18.06193 7142.000
18.10249 7559.000
18.14305 6170.000
18.18362 4012.000
18.22418 2568.000
18.26474 1837.000
18.30530 1560.000
18.34586 1463.000
18.38642 1419.000
18.42698 1311.000
18.46754 1251.000
18.50810 1353.000
18.54866 1797.000
18.58922 2292.000
18.62978 3082.000
18.67034 3767.000
18.71090 3650.000
18.75146 3063.000
18.79202 2129.000
18.83258 1706.000
18.87314 1398.000
18.91370 1379.000
18.95426 1420.000
18.99482 1537.000
19.03538 1744.000
19.07594 1644.000
19.11650 1398.000
19.15706 1058.000
19.19762 1011.000
19.23818 1043.000
19.27874 1145.000
19.31930 1350.000
19.35986 1583.000
19.40042 2203.000
19.44098 3009.000
19.48154 4129.000
19.52210 4494.000
19.56266 3792.000
19.60322 2996.000
19.64378 2101.000
19.68434 1865.000
19.72490 1878.000
19.76546 2098.000
19.80602 2587.000
19.84658 3128.000
19.88714 4012.000
19.92770 4483.000
19.96826 4096.000
20.00882 3090.000
20.04938 2461.000
20.08995 2287.000
20.13051 2518.000
20.17107 2860.000
20.21163 3126.000
20.25219 3306.000
20.29275 3823.000
20.33331 4649.000
20.37387 4441.000
20.41443 3161.000
20.45499 1894.000
20.49555 1396.000
20.53611 1382.000
20.57667 1355.000
20.61723 1240.000
20.65779 1033.000
20.69835 964.000
20.73891 878.000
20.77947 910.000
20.82003 877.000
20.86059 967.000
20.90115 946.000
20.94171 1023.000
20.98227 1071.000
21.02283 1129.000
21.06339 1351.000
21.10395 1537.000
21.14451 1852.000
21.18507 2235.000
21.22563 2581.000
21.26619 3369.000
21.30675 4445.000
21.34731 6071.000
21.38787 7738.000
21.42843 8808.000
21.46899 9881.000
21.50955 10578.000
21.55011 10471.000
21.59067 10067.000
21.63123 9314.000
21.67179 8004.000
21.71235 6092.000
21.75291 4232.000
21.79347 2714.000
21.83403 1905.000
21.87459 1376.000
21.91515 1228.000
21.95571 1089.000
21.99628 1048.000
22.03684 969.000
22.07740 937.000
22.11796 966.000
22.15852 947.000
22.19908 927.000
22.23964 931.000
22.28020 1038.000
22.32076 1073.000
22.36132 1142.000
22.40188 1307.000
22.44244 1467.000
22.48300 1485.000
22.52356 1549.000
22.56412 1472.000
22.60468 1154.000
22.64524 1135.000
22.68580 1035.000
22.72636 1080.000
22.76692 1171.000
22.80748 1266.000
22.84804 1382.000
22.88860 1513.000
22.92916 1478.000
22.96972 1387.000
23.01028 1568.000
23.05084 1322.000
23.09140 1160.000
23.13196 986.000
23.17252 962.000
23.21308 1011.000
23.25364 1105.000
23.29420 1270.000
23.33476 1565.000
23.37532 1838.000
23.41588 2402.000
23.45644 2976.000
23.49700 3592.000
23.53756 3670.000
23.57812 3193.000
23.61868 2658.000
23.65924 2010.000
23.69980 1795.000
23.74036 1578.000
23.78092 1557.000
23.82148 1404.000
23.86204 1346.000
23.90261 1118.000
23.94317 994.000
23.98373 957.000
24.02429 882.000
24.06485 804.000
24.10541 848.000
24.14597 883.000
24.18653 962.000
24.22709 1122.000
24.26765 1389.000
24.30821 1600.000
24.34877 1996.000
24.38933 2361.000
24.42989 2483.000
24.47045 2095.000
24.51101 1591.000
24.55157 1191.000
24.59213 1085.000
24.63269 1050.000
24.67325 1160.000
24.71381 1298.000
24.75437 1315.000
24.79493 1258.000
24.83549 1084.000
24.87605 949.000
24.91661 840.000
24.95717 898.000
24.99773 967.000
25.03829 1077.000
25.07885 1300.000
25.11941 1590.000
25.15997 1696.000
25.20053 1767.000
25.24109 1937.000
25.28165 1828.000
25.32221 1582.000
25.36277 1524.000
25.40333 1427.000
25.44389 1406.000
25.48445 1478.000
25.52501 1259.000
25.56557 1091.000
25.60613 919.000
25.64669 846.000
25.68725 854.000
25.72781 787.000
25.76837 838.000
25.80893 861.000
25.84950 964.000
25.89006 1076.000
25.93062 1221.000
25.97118 1540.000
26.01174 1861.000
26.05230 1912.000
26.09286 1911.000
26.13342 1779.000
26.17398 1538.000
26.21454 1238.000
26.25510 1176.000
26.29566 1038.000
26.33622 1112.000
26.37678 1212.000
26.41734 1244.000
26.45790 1334.000
26.49846 1525.000
26.53902 1580.000
26.57958 1717.000
26.62014 1620.000
26.66070 1506.000
26.70126 1410.000
26.74182 1302.000
26.78238 1168.000
26.82294 1297.000
26.86350 1430.000
26.90406 1565.000
26.94462 1808.000
26.98518 1822.000
27.02574 1752.000
27.06630 1651.000
27.10686 1474.000
27.14742 1377.000
27.18798 1239.000
27.22854 1189.000
27.26910 1107.000
27.30966 1171.000
27.35022 1177.000
27.39078 1305.000
27.43134 1345.000
27.47190 1402.000
27.51246 1276.000
27.55302 1171.000
27.59358 1047.000
27.63414 794.000
27.67470 742.000
27.71526 631.000
27.75583 611.000
27.79639 556.000
27.83695 588.000
27.87751 582.000
27.91807 566.000
27.95863 556.000
27.99919 551.000
28.03975 563.000
28.08031 598.000
28.12087 575.000
28.16143 636.000
28.20199 681.000
28.24255 706.000
28.28311 793.000
28.32367 843.000
28.36423 937.000
28.40479 993.000
28.44535 1139.000
28.48591 1224.000
28.52647 1289.000
28.56703 1266.000
28.60759 1219.000
28.64815 1005.000
28.68871 955.000
28.72927 901.000
28.76983 869.000
28.81039 787.000
28.85095 853.000
28.89151 874.000
28.93207 865.000
28.97263 965.000
29.01319 1104.000
29.05375 1136.000
29.09431 1119.000
29.13487 1094.000
29.17543 1037.000
29.21599 868.000
29.25655 883.000
29.29711 938.000
29.33767 983.000
29.37823 1039.000
29.41879 977.000
29.45935 881.000
29.49991 894.000
29.54047 878.000
29.58103 864.000
29.62159 902.000
29.66216 953.000
29.70272 1020.000
29.74328 1074.000
29.78384 1104.000
29.82440 1089.000
29.86496 1112.000
29.90552 1095.000
29.94608 1070.000
29.98664 1060.000
30.02720 1021.000
30.06776 993.000
30.10832 977.000
30.14888 862.000
30.18944 775.000
30.23000 688.000
30.27056 747.000
30.31112 704.000
30.35168 816.000
30.39224 850.000
30.43280 939.000
30.47336 907.000
30.51392 802.000
30.55448 697.000
30.59504 583.000
30.63560 561.000
30.67616 518.000
30.71672 551.000
30.75728 545.000
30.79784 530.000
30.83840 532.000
30.87896 569.000
30.91952 599.000
30.96008 601.000
31.00064 688.000
31.04120 706.000
31.08176 758.000
31.12232 785.000
31.16288 791.000
31.20344 728.000
31.24400 705.000
31.28456 645.000
31.32512 621.000
31.36568 565.000
31.40624 570.000
31.44680 572.000
31.48736 544.000
31.52792 556.000
31.56849 557.000
31.60905 655.000
31.64961 620.000
31.69017 704.000
31.73073 716.000
31.77129 677.000
31.81185 708.000
31.85241 721.000
31.89297 717.000
31.93353 764.000
31.97409 722.000
32.01465 742.000
32.05521 703.000
32.09577 696.000
32.13633 679.000
32.17689 606.000
32.21745 658.000
32.25801 590.000
32.29857 562.000
32.33913 584.000
32.37969 609.000
32.42025 544.000
32.46081 568.000
32.50137 533.000
32.54193 493.000
32.58249 485.000
32.62305 541.000
32.66361 536.000
32.70417 544.000
32.74473 592.000
32.78529 600.000
32.82585 561.000
32.86641 623.000
32.90697 598.000
32.94753 684.000
32.98809 683.000
33.02865 683.000
33.06921 687.000
33.10977 677.000
33.15033 679.000
33.19089 746.000
33.23145 657.000
33.27201 714.000
33.31257 844.000
33.35313 820.000
33.39369 750.000
33.43425 771.000
33.47482 644.000
33.51538 575.000
33.55594 582.000
33.59650 545.000
33.63706 561.000
33.67762 562.000
33.71818 562.000
33.75874 551.000
33.79930 533.000
33.83986 579.000
33.88042 597.000
33.92098 568.000
33.96154 620.000
34.00210 654.000
34.04266 682.000
34.08322 618.000
34.12378 654.000
34.16434 682.000
34.20490 618.000
34.24546 679.000
34.28602 729.000
34.32658 723.000
34.36714 714.000
34.40770 803.000
34.44826 924.000
34.48882 1092.000
34.52938 1131.000
34.56994 1284.000
34.61050 1358.000
34.65106 1145.000
34.69162 1042.000
34.73218 908.000
34.77274 829.000
34.81330 842.000
34.85386 879.000
34.89442 918.000
34.93498 919.000
34.97554 956.000
35.01610 902.000
35.05666 818.000
35.09722 764.000
35.13778 684.000
35.17834 674.000
35.21890 648.000
35.25946 633.000
35.30002 655.000
35.34058 650.000
35.38115 627.000
35.42171 634.000
35.46227 651.000
35.50283 598.000
35.54339 667.000
35.58395 624.000
35.62451 644.000
35.66507 640.000
35.70563 549.000
35.74619 559.000
35.78675 511.000
35.82731 503.000
35.86787 486.000
35.90843 499.000
35.94899 498.000
35.98955 460.000
36.03011 510.000
36.07067 542.000
36.11123 523.000
36.15179 597.000
36.19235 617.000
36.23291 640.000
36.27347 636.000
36.31403 653.000
36.35459 648.000
36.39515 655.000
36.43571 718.000
36.47627 650.000
36.51683 743.000
36.55739 720.000
36.59795 741.000
36.63851 814.000
36.67907 781.000
36.71963 828.000
36.76019 903.000
36.80075 875.000
36.84131 852.000
36.88187 899.000
36.92243 814.000
36.96299 774.000
37.00355 724.000
37.04411 700.000
37.08467 760.000
37.12523 749.000
37.16579 675.000
37.20635 646.000
37.24691 634.000
37.28748 636.000
37.32804 605.000
37.36860 574.000
37.40916 566.000
37.44972 568.000
37.49028 569.000
37.53084 602.000
37.57140 583.000
37.61196 578.000
37.65252 559.000
37.69308 542.000
37.73364 611.000
37.77420 669.000
37.81476 638.000
37.85532 708.000
37.89588 698.000
37.93644 709.000
37.97700 778.000
38.01756 738.000
38.05812 712.000
38.09868 753.000
38.13924 686.000
38.17980 621.000
38.22036 572.000
38.26092 576.000
38.30148 517.000
38.34204 568.000
38.38260 555.000
38.42316 627.000
38.46372 629.000
38.50428 625.000
38.54484 580.000
38.58540 548.000
38.62596 598.000
38.66652 543.000
38.70708 516.000
38.74764 501.000
38.78820 494.000
38.82876 534.000
38.86932 491.000
38.90988 489.000
38.95044 484.000
38.99100 514.000
39.03156 539.000
39.07212 530.000
39.11268 561.000
39.15324 522.000
39.19381 516.000
39.23437 531.000
39.27493 540.000
39.31549 543.000
39.35605 573.000
39.39661 641.000
39.43717 602.000
39.47773 615.000
39.51829 641.000
39.55885 657.000
39.59941 666.000
39.63997 681.000
39.68053 662.000
39.72109 714.000
39.76165 720.000
39.80221 653.000
39.84277 601.000
39.88333 632.000
39.92389 614.000
39.96445 616.000
40.00501 619.000
40.04557 684.000
40.08613 740.000
40.12669 773.000
40.16725 808.000
40.20781 782.000
40.24837 827.000
40.28893 866.000
40.32949 773.000
40.37005 759.000
40.41061 782.000
40.45117 763.000
40.49173 725.000
40.53229 679.000
40.57285 630.000
40.61341 605.000
40.65397 571.000
40.69453 530.000
40.73509 555.000
40.77565 541.000
40.81621 517.000
40.85677 527.000
40.89733 522.000
40.93789 558.000
40.97845 552.000
41.01901 561.000
41.05957 600.000
41.10014 543.000
41.14070 570.000
41.18126 569.000
41.22182 610.000
41.26238 664.000
41.30294 697.000
41.34350 684.000
41.38406 667.000
41.42462 694.000
41.46518 680.000
41.50574 704.000
41.54630 735.000
41.58686 753.000
41.62742 740.000
41.66798 730.000
41.70854 771.000
41.74910 763.000
41.78966 756.000
41.83022 718.000
41.87078 726.000
41.91134 648.000
41.95190 584.000
41.99246 546.000
42.03302 466.000
42.07358 533.000
42.11414 474.000
42.15470 503.000
42.19526 538.000
42.23582 462.000
42.27638 504.000
42.31694 453.000
42.35750 480.000
42.39806 486.000
42.43862 527.000
42.47918 490.000
42.51974 431.000
42.56030 476.000
42.60086 475.000
42.64142 427.000
42.68198 483.000
42.72254 458.000
42.76310 450.000
42.80366 461.000
42.84422 445.000
42.88478 501.000
42.92534 474.000
42.96590 500.000
43.00647 493.000
43.04703 504.000
43.08759 536.000
43.12815 576.000
43.16871 569.000
43.20927 627.000
43.24983 583.000
43.29039 663.000
43.33095 700.000
43.37151 657.000
43.41207 663.000
43.45263 648.000
43.49319 607.000
43.53375 652.000
43.57431 693.000
43.61487 679.000
43.65543 623.000
43.69599 678.000
43.73655 638.000
43.77711 644.000
43.81767 699.000
43.85823 674.000
43.89879 649.000
43.93935 710.000
43.97991 713.000
44.02047 692.000
44.06103 697.000
44.10159 689.000
44.14215 658.000
44.18271 598.000
44.22327 631.000
44.26383 610.000
44.30439 617.000
44.34495 551.000
44.38551 581.000
44.42607 559.000
44.46663 528.000
44.50719 514.000
44.54775 513.000
44.58831 505.000
44.62887 508.000
44.66943 530.000
44.70999 493.000
44.75055 538.000
44.79111 549.000
44.83167 563.000
44.87223 554.000
44.91280 547.000
44.95336 600.000
44.99392 571.000
45.03448 568.000
45.07504 531.000
45.11560 552.000
45.15616 528.000
45.19672 507.000
45.23728 508.000
45.27784 488.000
45.31840 527.000
45.35896 495.000
45.39952 514.000
45.44008 538.000
45.48064 500.000
45.52120 532.000
45.56176 524.000
45.60232 542.000
45.64288 540.000
45.68344 562.000
45.72400 560.000
45.76456 544.000
45.80512 534.000
45.84568 547.000
45.88624 535.000
45.92680 515.000
45.96736 535.000
46.00792 530.000
46.04848 502.000
46.08904 508.000
46.12960 508.000
46.17016 512.000
46.21072 516.000
46.25128 563.000
46.29184 523.000
46.33240 533.000
46.37296 571.000
46.41352 581.000
46.45408 597.000
46.49464 589.000
46.53520 549.000
46.57576 572.000
46.61632 639.000
46.65688 591.000
46.69744 582.000
46.73800 574.000
46.77856 542.000
46.81913 546.000
46.85969 525.000
46.90025 506.000
46.94081 533.000
46.98137 480.000
47.02193 506.000
47.06249 492.000
47.10305 471.000
47.14361 514.000
47.18417 536.000
47.22473 567.000
47.26529 567.000
47.30585 573.000
47.34641 627.000
47.38697 592.000
47.42753 607.000
47.46809 559.000
47.50865 593.000
47.54921 543.000
47.58977 565.000
47.63033 574.000
47.67089 531.000
47.71145 585.000
47.75201 565.000
47.79257 514.000
47.83313 508.000
47.87369 564.000
47.91425 514.000
47.95481 521.000
47.99537 487.000
48.03593 495.000
48.07649 485.000
48.11705 495.000
48.15761 462.000
48.19817 436.000
48.23873 455.000
48.27929 479.000
48.31985 481.000
48.36041 438.000
48.40097 478.000
48.44153 459.000
48.48209 490.000
48.52265 499.000
48.56321 469.000
48.60377 476.000
48.64433 482.000
48.68489 488.000
48.72546 446.000
48.76602 433.000
48.80658 450.000
48.84714 395.000
48.88770 417.000
48.92826 430.000
48.96882 439.000
49.00938 429.000
49.04994 395.000
49.09050 410.000
49.13106 426.000
49.17162 441.000
49.21218 450.000
49.25274 400.000
49.29330 475.000
49.33386 465.000
49.37442 454.000
49.41498 442.000
49.45554 440.000
49.49610 491.000
49.53666 475.000
49.57722 433.000
49.61778 437.000
49.65834 463.000
49.69890 449.000
49.73946 498.000
49.78002 457.000
49.82058 468.000
49.86114 458.000
49.90170 460.000
49.94226 474.000
49.98282 471.000
50.02338 418.000
50.06394 464.000
50.10450 460.000
50.14506 442.000
50.18562 525.000
50.22618 474.000
50.26674 545.000
50.30730 507.000
50.34786 564.000
50.38842 517.000
50.42898 555.000
50.46954 495.000
50.51010 513.000
50.55066 536.000
50.59122 483.000
50.63179 497.000
50.67235 470.000
50.71291 480.000
50.75347 472.000
50.79403 480.000
50.83459 447.000
50.87515 445.000
50.91571 444.000
50.95627 429.000
50.99683 456.000