File: Task01/nick/files/ESI_material_XRD/kinetics/crystal_size_analysis/10ul IPA/RVR_10ul_IPA_30m.xy
5.00155 649.000
5.04211 619.000
5.08267 630.000
5.12323 644.000
5.16379 610.000
5.20435 570.000
5.24491 596.000
5.28547 638.000
5.32603 599.000
5.36659 561.000
5.40715 539.000
5.44771 600.000
5.48827 559.000
5.52883 520.000
5.56939 554.000
5.60995 532.000
5.65051 519.000
5.69107 533.000
5.73163 538.000
5.77219 494.000
5.81275 508.000
5.85331 541.000
5.89387 504.000
5.93443 496.000
5.97499 516.000
6.01555 501.000
6.05611 489.000
6.09667 523.000
6.13723 550.000
6.17779 477.000
6.21835 452.000
6.25891 488.000
6.29947 526.000
6.34003 464.000
6.38059 482.000
6.42115 512.000
6.46171 596.000
6.50227 646.000
6.54283 693.000
6.58339 848.000
6.62395 1079.000
6.66451 1495.000
6.70507 2242.000
6.74564 3240.000
6.78620 4792.000
6.82676 6191.000
6.86732 7254.000
6.90788 6564.000
6.94844 4718.000
6.98900 2323.000
7.02956 1213.000
7.07012 907.000
7.11068 701.000
7.15124 672.000
7.19180 586.000
7.23236 575.000
7.27292 526.000
7.31348 529.000
7.35404 456.000
7.39460 548.000
7.43516 471.000
7.47572 507.000
7.51628 499.000
7.55684 488.000
7.59740 479.000
7.63796 451.000
7.67852 518.000
7.71908 475.000
7.75964 468.000
7.80020 507.000
7.84076 519.000
7.88132 480.000
7.92188 493.000
7.96244 519.000
8.00300 532.000
8.04356 587.000
8.08412 603.000
8.12468 707.000
8.16524 891.000
8.20580 1224.000
8.24636 1735.000
8.28692 2567.000
8.32748 3774.000
8.36804 5307.000
8.40860 6818.000
8.44916 7238.000
8.48972 5311.000
8.53028 3048.000
8.57084 1539.000
8.61140 1089.000
8.65197 948.000
8.69253 781.000
8.73309 710.000
8.77365 671.000
8.81421 613.000
8.85477 564.000
8.89533 562.000
8.93589 530.000
8.97645 525.000
9.01701 482.000
9.05757 520.000
9.09813 532.000
9.13869 476.000
9.17925 490.000
9.21981 459.000
9.26037 435.000
9.30093 458.000
9.34149 472.000
9.38205 452.000
9.42261 392.000
9.46317 435.000
9.50373 496.000
9.54429 522.000
9.58485 531.000
9.62541 444.000
9.66597 436.000
9.70653 466.000
9.74709 412.000
9.78765 470.000
9.82821 481.000
9.86877 533.000
9.90933 533.000
9.94989 516.000
9.99045 524.000
10.03101 491.000
10.07157 481.000
10.11213 479.000
10.15269 428.000
10.19325 437.000
10.23381 448.000
10.27437 445.000
10.31493 459.000
10.35549 463.000
10.39605 502.000
10.43661 572.000
10.47717 725.000
10.51773 819.000
10.55830 1139.000
10.59886 1430.000
10.63942 1367.000
10.67998 1070.000
10.72054 710.000
10.76110 614.000
10.80166 581.000
10.84222 528.000
10.88278 503.000
10.92334 471.000
10.96390 438.000
11.00446 491.000
11.04502 445.000
11.08558 425.000
11.12614 395.000
11.16670 380.000
11.20726 423.000
11.24782 379.000
11.28838 435.000
11.32894 405.000
11.36950 410.000
11.41006 400.000
11.45062 400.000
11.49118 412.000
11.53174 396.000
11.57230 402.000
11.61286 411.000
11.65342 394.000
11.69398 409.000
11.73454 395.000
11.77510 403.000
11.81566 388.000
11.85622 387.000
11.89678 414.000
11.93734 386.000
11.97790 399.000
12.01846 376.000
12.05902 402.000
12.09958 355.000
12.14014 418.000
12.18070 379.000
12.22126 458.000
12.26182 413.000
12.30238 409.000
12.34294 392.000
12.38350 396.000
12.42406 374.000
12.46463 419.000
12.50519 414.000
12.54575 439.000
12.58631 383.000
12.62687 419.000
12.66743 462.000
12.70799 438.000
12.74855 411.000
12.78911 442.000
12.82967 405.000
12.87023 394.000
12.91079 430.000
12.95135 424.000
12.99191 468.000
13.03247 521.000
13.07303 512.000
13.11359 571.000
13.15415 723.000
13.19471 892.000
13.23527 984.000
13.27583 1121.000
13.31639 1109.000
13.35695 1232.000
13.39751 1242.000
13.43807 1302.000
13.47863 1316.000
13.51919 1503.000
13.55975 1894.000
13.60031 2038.000
13.64087 2022.000
13.68143 1621.000
13.72199 1322.000
13.76255 1021.000
13.80311 779.000
13.84367 648.000
13.88423 606.000
13.92479 542.000
13.96535 493.000
14.00591 464.000
14.04647 527.000
14.08703 504.000
14.12759 494.000
14.16815 466.000
14.20871 485.000
14.24927 495.000
14.28983 488.000
14.33039 516.000
14.37096 509.000
14.41152 543.000
14.45208 546.000
14.49264 627.000
14.53320 746.000
14.57376 943.000
14.61432 1311.000
14.65488 1920.000
14.69544 2594.000
14.73600 2955.000
14.77656 2626.000
14.81712 1762.000
14.85768 1356.000
14.89824 1400.000
14.93880 1684.000
14.97936 1802.000
15.01992 1742.000
15.06048 1211.000
15.10104 779.000
15.14160 598.000
15.18216 634.000
15.22272 556.000
15.26328 565.000
15.30384 513.000
15.34440 500.000
15.38496 532.000
15.42552 537.000
15.46608 502.000
15.50664 513.000
15.54720 548.000
15.58776 523.000
15.62832 509.000
15.66888 523.000
15.70944 520.000
15.75000 541.000
15.79056 568.000
15.83112 581.000
15.87168 623.000
15.91224 530.000
15.95280 670.000
15.99336 604.000
16.03392 706.000
16.07448 744.000
16.11504 755.000
16.15560 814.000
16.19616 937.000
16.23672 1095.000
16.27729 1439.000
16.31785 2113.000
16.35841 3055.000
16.39897 4040.000
16.43953 4457.000
16.48009 3993.000
16.52065 3193.000
16.56121 2427.000
16.60177 2264.000
16.64233 2421.000
16.68289 2604.000
16.72345 2759.000
16.76401 2951.000
16.80457 3492.000
16.84513 3906.000
16.88569 3660.000
16.92625 2843.000
16.96681 2462.000
17.00737 2366.000
17.04793 3124.000
17.08849 4214.000
17.12905 5511.000
17.16961 6364.000
17.21017 5774.000
17.25073 4294.000
17.29129 2917.000
17.33185 1953.000
17.37241 1366.000
17.41297 1232.000
17.45353 1074.000
17.49409 931.000
17.53465 940.000
17.57521 909.000
17.61577 944.000
17.65633 971.000
17.69689 992.000
17.73745 1044.000
17.77801 1152.000
17.81857 1281.000
17.85913 1392.000
17.89969 1550.000
17.94025 1838.000
17.98081 2484.000
18.02137 3712.000
18.06193 5486.000
18.10249 7336.000
18.14305 9157.000
18.18362 9213.000
18.22418 7635.000
18.26474 5318.000
18.30530 3524.000
18.34586 2358.000
18.38642 1920.000
18.42698 1640.000
18.46754 1571.000
18.50810 1588.000
18.54866 1585.000
18.58922 1858.000
18.62978 2497.000
18.67034 3143.000
18.71090 4023.000
18.75146 4662.000
18.79202 4566.000
18.83258 3832.000
18.87314 2838.000
18.91370 2253.000
18.95426 1891.000
18.99482 1786.000
19.03538 2020.000
19.07594 2142.000
19.11650 2183.000
19.15706 1940.000
19.19762 1545.000
19.23818 1319.000
19.27874 1263.000
19.31930 1292.000
19.35986 1430.000
19.40042 1821.000
19.44098 2371.000
19.48154 3307.000
19.52210 4464.000
19.56266 5297.000
19.60322 5323.000
19.64378 4389.000
19.68434 3309.000
19.72490 2671.000
19.76546 2330.000
19.80602 2490.000
19.84658 2913.000
19.88714 3544.000
19.92770 4581.000
19.96826 5447.000
20.00882 5433.000
20.04938 4634.000
20.08995 3711.000
20.13051 3267.000
20.17107 3188.000
20.21163 3419.000
20.25219 3774.000
20.29275 4036.000
20.33331 4590.000
20.37387 5442.000
20.41443 5829.000
20.45499 5033.000
20.49555 3449.000
20.53611 2198.000
20.57667 1711.000
20.61723 1586.000
20.65779 1482.000
20.69835 1330.000
20.73891 1256.000
20.77947 1127.000
20.82003 1139.000
20.86059 1145.000
20.90115 1127.000
20.94171 1251.000
20.98227 1252.000
21.02283 1309.000
21.06339 1396.000
21.10395 1531.000
21.14451 1761.000
21.18507 1952.000
21.22563 2537.000
21.26619 3057.000
21.30675 3601.000
21.34731 4876.000
21.38787 6536.000
21.42843 8644.000
21.46899 10313.000
21.50955 11808.000
21.55011 13019.000
21.59067 13937.000
21.63123 13717.000
21.67179 13085.000
21.71235 11795.000
21.75291 9522.000
21.79347 7107.000
21.83403 4936.000
21.87459 3273.000
21.91515 2310.000
21.95571 1803.000
21.99628 1560.000
22.03684 1432.000
22.07740 1268.000
22.11796 1215.000
22.15852 1107.000
22.19908 1138.000
22.23964 1162.000
22.28020 1176.000
22.32076 1204.000
22.36132 1258.000
22.40188 1363.000
22.44244 1487.000
22.48300 1620.000
22.52356 1893.000
22.56412 1910.000
22.60468 1899.000
22.64524 1732.000
22.68580 1438.000
22.72636 1364.000
22.76692 1455.000
22.80748 1369.000
22.84804 1561.000
22.88860 1724.000
22.92916 1874.000
22.96972 1990.000
23.01028 1996.000
23.05084 1950.000
23.09140 1826.000
23.13196 1613.000
23.17252 1396.000
23.21308 1219.000
23.25364 1212.000
23.29420 1281.000
23.33476 1520.000
23.37532 1687.000
23.41588 2089.000
23.45644 2666.000
23.49700 3306.000
23.53756 3966.000
23.57812 4423.000
23.61868 4442.000
23.65924 4134.000
23.69980 3324.000
23.74036 2632.000
23.78092 2297.000
23.82148 2121.000
23.86204 2017.000
23.90261 1915.000
23.94317 1618.000
23.98373 1425.000
24.02429 1285.000
24.06485 1121.000
24.10541 1165.000
24.14597 1087.000
24.18653 1099.000
24.22709 1147.000
24.26765 1349.000
24.30821 1609.000
24.34877 1988.000
24.38933 2474.000
24.42989 2966.000
24.47045 3186.000
24.51101 2933.000
24.55157 2303.000
24.59213 1646.000
24.63269 1364.000
24.67325 1326.000
24.71381 1428.000
24.75437 1531.000
24.79493 1643.000
24.83549 1697.000
24.87605 1534.000
24.91661 1213.000
24.95717 1097.000
24.99773 1022.000
25.03829 1160.000
25.07885 1240.000
25.11941 1458.000
25.15997 1807.000
25.20053 2103.000
25.24109 2357.000
25.28165 2371.000
25.32221 2401.000
25.36277 2127.000
25.40333 1869.000
25.44389 1745.000
25.48445 1921.000
25.52501 1877.000
25.56557 1718.000
25.60613 1464.000
25.64669 1385.000
25.68725 1151.000
25.72781 1042.000
25.76837 984.000
25.80893 1054.000
25.84950 1063.000
25.89006 1150.000
25.93062 1336.000
25.97118 1554.000
26.01174 1795.000
26.05230 2063.000
26.09286 2228.000
26.13342 2388.000
26.17398 2222.000
26.21454 2008.000
26.25510 1736.000
26.29566 1555.000
26.33622 1473.000
26.37678 1426.000
26.41734 1455.000
26.45790 1537.000
26.49846 1670.000
26.53902 1761.000
26.57958 1972.000
26.62014 2029.000
26.66070 2119.000
26.70126 1958.000
26.74182 1822.000
26.78238 1764.000
26.82294 1653.000
26.86350 1710.000
26.90406 1751.000
26.94462 1972.000
26.98518 2222.000
27.02574 2232.000
27.06630 2333.000
27.10686 2190.000
27.14742 2020.000
27.18798 1878.000
27.22854 1747.000
27.26910 1541.000
27.30966 1489.000
27.35022 1490.000
27.39078 1558.000
27.43134 1532.000
27.47190 1648.000
27.51246 1760.000
27.55302 1679.000
27.59358 1560.000
27.63414 1457.000
27.67470 1202.000
27.71526 1010.000
27.75583 892.000
27.79639 761.000
27.83695 759.000
27.87751 760.000
27.91807 713.000
27.95863 663.000
27.99919 713.000
28.03975 697.000
28.08031 709.000
28.12087 689.000
28.16143 713.000
28.20199 777.000
28.24255 802.000
28.28311 779.000
28.32367 948.000
28.36423 1089.000
28.40479 1138.000
28.44535 1248.000
28.48591 1397.000
28.52647 1521.000
28.56703 1518.000
28.60759 1531.000
28.64815 1514.000
28.68871 1432.000
28.72927 1276.000
28.76983 1201.000
28.81039 1088.000
28.85095 1050.000
28.89151 1018.000
28.93207 1020.000
28.97263 1149.000
29.01319 1222.000
29.05375 1342.000
29.09431 1439.000
29.13487 1493.000
29.17543 1418.000
29.21599 1321.000
29.25655 1197.000
29.29711 1200.000
29.33767 1170.000
29.37823 1295.000
29.41879 1260.000
29.45935 1223.000
29.49991 1168.000
29.54047 1090.000
29.58103 1113.000
29.62159 1141.000
29.66216 1144.000
29.70272 1203.000
29.74328 1224.000
29.78384 1278.000
29.82440 1357.000
29.86496 1330.000
29.90552 1368.000
29.94608 1344.000
29.98664 1431.000
30.02720 1373.000
30.06776 1305.000
30.10832 1272.000
30.14888 1294.000
30.18944 1127.000
30.23000 1051.000
30.27056 970.000
30.31112 899.000
30.35168 970.000
30.39224 1030.000
30.43280 1060.000
30.47336 1149.000
30.51392 1109.000
30.55448 1042.000
30.59504 924.000
30.63560 879.000
30.67616 726.000
30.71672 671.000
30.75728 673.000
30.79784 683.000
30.83840 659.000
30.87896 649.000
30.91952 679.000
30.96008 734.000
31.00064 741.000
31.04120 837.000
31.08176 922.000
31.12232 940.000
31.16288 963.000
31.20344 1019.000
31.24400 997.000
31.28456 935.000
31.32512 907.000
31.36568 773.000
31.40624 745.000
31.44680 714.000
31.48736 689.000
31.52792 658.000
31.56849 699.000
31.60905 695.000
31.64961 774.000
31.69017 769.000
31.73073 744.000
31.77129 812.000
31.81185 882.000
31.85241 857.000
31.89297 891.000
31.93353 931.000
31.97409 895.000
32.01465 938.000
32.05521 984.000
32.09577 868.000
32.13633 893.000
32.17689 818.000
32.21745 849.000
32.25801 763.000
32.29857 805.000
32.33913 803.000
32.37969 731.000
32.42025 708.000
32.46081 766.000
32.50137 742.000
32.54193 682.000
32.58249 646.000
32.62305 630.000
32.66361 653.000
32.70417 649.000
32.74473 703.000
32.78529 715.000
32.82585 708.000
32.86641 729.000
32.90697 704.000
32.94753 767.000
32.98809 869.000
33.02865 848.000
33.06921 901.000
33.10977 845.000
33.15033 838.000
33.19089 789.000
33.23145 832.000
33.27201 824.000
33.31257 928.000
33.35313 979.000
33.39369 955.000
33.43425 987.000
33.47482 969.000
33.51538 868.000
33.55594 804.000
33.59650 758.000
33.63706 707.000
33.67762 702.000
33.71818 655.000
33.75874 658.000
33.79930 661.000
33.83986 665.000
33.88042 639.000
33.92098 692.000
33.96154 716.000
34.00210 774.000
34.04266 840.000
34.08322 813.000
34.12378 813.000
34.16434 873.000
34.20490 851.000
34.24546 846.000
34.28602 916.000
34.32658 905.000
34.36714 938.000
34.40770 932.000
34.44826 982.000
34.48882 1093.000
34.52938 1271.000
34.56994 1376.000
34.61050 1545.000
34.65106 1593.000
34.69162 1500.000
34.73218 1392.000
34.77274 1300.000
34.81330 1148.000
34.85386 1094.000
34.89442 1048.000
34.93498 1117.000
34.97554 1147.000
35.01610 1158.000
35.05666 1167.000
35.09722 1017.000
35.13778 1049.000
35.17834 969.000
35.21890 904.000
35.25946 867.000
35.30002 828.000
35.34058 792.000
35.38115 752.000
35.42171 744.000
35.46227 760.000
35.50283 746.000
35.54339 838.000
35.58395 780.000
35.62451 851.000
35.66507 739.000
35.70563 784.000
35.74619 744.000
35.78675 689.000
35.82731 680.000
35.86787 604.000
35.90843 638.000
35.94899 590.000
35.98955 601.000
36.03011 652.000
36.07067 616.000
36.11123 633.000
36.15179 633.000
36.19235 674.000
36.23291 710.000
36.27347 728.000
36.31403 734.000
36.35459 791.000
36.39515 835.000
36.43571 787.000
36.47627 831.000
36.51683 843.000
36.55739 861.000
36.59795 956.000
36.63851 971.000
36.67907 980.000
36.71963 1109.000
36.76019 1080.000
36.80075 1156.000
36.84131 1141.000
36.88187 1180.000
36.92243 1034.000
36.96299 1052.000
37.00355 977.000
37.04411 900.000
37.08467 867.000
37.12523 884.000
37.16579 939.000
37.20635 826.000
37.24691 843.000
37.28748 822.000
37.32804 773.000
37.36860 789.000
37.40916 713.000
37.44972 707.000
37.49028 739.000
37.53084 720.000
37.57140 661.000
37.61196 707.000
37.65252 776.000
37.69308 718.000
37.73364 737.000
37.77420 789.000
37.81476 771.000
37.85532 779.000
37.89588 786.000
37.93644 846.000
37.97700 919.000
38.01756 927.000
38.05812 969.000
38.09868 924.000
38.13924 947.000
38.17980 812.000
38.22036 853.000
38.26092 704.000
38.30148 727.000
38.34204 771.000
38.38260 745.000
38.42316 758.000
38.46372 801.000
38.50428 775.000
38.54484 761.000
38.58540 748.000
38.62596 703.000
38.66652 679.000
38.70708 652.000
38.74764 641.000
38.78820 647.000
38.82876 601.000
38.86932 633.000
38.90988 680.000
38.95044 639.000
38.99100 605.000
39.03156 607.000
39.07212 655.000
39.11268 617.000
39.15324 654.000
39.19381 685.000
39.23437 672.000
39.27493 656.000
39.31549 669.000
39.35605 720.000
39.39661 751.000
39.43717 711.000
39.47773 747.000
39.51829 812.000
39.55885 798.000
39.59941 842.000
39.63997 838.000
39.68053 863.000
39.72109 907.000
39.76165 839.000
39.80221 796.000
39.84277 794.000
39.88333 771.000
39.92389 729.000
39.96445 728.000
40.00501 739.000
40.04557 782.000
40.08613 854.000
40.12669 872.000
40.16725 993.000
40.20781 972.000
40.24837 1036.000
40.28893 1048.000
40.32949 1044.000
40.37005 979.000
40.41061 988.000
40.45117 962.000
40.49173 922.000
40.53229 946.000
40.57285 910.000
40.61341 807.000
40.65397 723.000
40.69453 772.000
40.73509 718.000
40.77565 759.000
40.81621 628.000
40.85677 684.000
40.89733 623.000
40.93789 673.000
40.97845 742.000
41.01901 672.000
41.05957 738.000
41.10014 710.000
41.14070 680.000
41.18126 635.000
41.22182 671.000
41.26238 721.000
41.30294 764.000
41.34350 767.000
41.38406 840.000
41.42462 823.000
41.46518 832.000
41.50574 890.000
41.54630 943.000
41.58686 866.000
41.62742 874.000
41.66798 827.000
41.70854 884.000
41.74910 901.000
41.78966 958.000
41.83022 986.000
41.87078 936.000
41.91134 905.000
41.95190 827.000
41.99246 817.000
42.03302 754.000
42.07358 680.000
42.11414 596.000
42.15470 631.000
42.19526 646.000
42.23582 630.000
42.27638 615.000
42.31694 612.000
42.35750 647.000
42.39806 580.000
42.43862 610.000
42.47918 616.000
42.51974 543.000
42.56030 510.000
42.60086 551.000
42.64142 556.000
42.68198 521.000
42.72254 609.000
42.76310 570.000
42.80366 606.000
42.84422 582.000
42.88478 528.000
42.92534 605.000
42.96590 619.000
43.00647 615.000
43.04703 588.000
43.08759 686.000
43.12815 619.000
43.16871 650.000
43.20927 706.000
43.24983 721.000
43.29039 779.000
43.33095 795.000
43.37151 828.000
43.41207 818.000
43.45263 824.000
43.49319 827.000
43.53375 866.000
43.57431 785.000
43.61487 797.000
43.65543 743.000
43.69599 782.000
43.73655 741.000
43.77711 827.000
43.81767 819.000
43.85823 848.000
43.89879 839.000
43.93935 925.000
43.97991 957.000
44.02047 837.000
44.06103 904.000
44.10159 849.000
44.14215 845.000
44.18271 820.000
44.22327 784.000
44.26383 760.000
44.30439 709.000
44.34495 719.000
44.38551 690.000
44.42607 661.000
44.46663 645.000
44.50719 660.000
44.54775 619.000
44.58831 655.000
44.62887 645.000
44.66943 641.000
44.70999 634.000
44.75055 678.000
44.79111 656.000
44.83167 640.000
44.87223 673.000
44.91280 696.000
44.95336 668.000
44.99392 706.000
45.03448 672.000
45.07504 720.000
45.11560 663.000
45.15616 676.000
45.19672 601.000
45.23728 587.000
45.27784 640.000
45.31840 592.000
45.35896 597.000
45.39952 660.000
45.44008 632.000
45.48064 622.000
45.52120 657.000
45.56176 640.000
45.60232 648.000
45.64288 638.000
45.68344 670.000
45.72400 661.000
45.76456 626.000
45.80512 682.000
45.84568 655.000
45.88624 665.000
45.92680 696.000
45.96736 658.000
46.00792 623.000
46.04848 605.000
46.08904 649.000
46.12960 626.000
46.17016 657.000
46.21072 659.000
46.25128 604.000
46.29184 652.000
46.33240 634.000
46.37296 646.000
46.41352 651.000
46.45408 647.000
46.49464 686.000
46.53520 702.000
46.57576 673.000
46.61632 719.000
46.65688 738.000
46.69744 686.000
46.73800 715.000
46.77856 710.000
46.81913 656.000
46.85969 647.000
46.90025 649.000
46.94081 586.000
46.98137 612.000
47.02193 631.000
47.06249 597.000
47.10305 616.000
47.14361 655.000
47.18417 637.000
47.22473 646.000
47.26529 648.000
47.30585 694.000
47.34641 680.000
47.38697 718.000
47.42753 734.000
47.46809 719.000
47.50865 734.000
47.54921 763.000
47.58977 690.000
47.63033 656.000
47.67089 735.000
47.71145 651.000
47.75201 676.000
47.79257 667.000
47.83313 645.000
47.87369 623.000
47.91425 620.000
47.95481 647.000
47.99537 663.000
48.03593 634.000
48.07649 630.000
48.11705 629.000
48.15761 640.000
48.19817 556.000
48.23873 556.000
48.27929 583.000
48.31985 529.000
48.36041 567.000
48.40097 539.000
48.44153 554.000
48.48209 543.000
48.52265 559.000
48.56321 559.000
48.60377 564.000
48.64433 593.000
48.68489 562.000
48.72546 573.000
48.76602 586.000
48.80658 547.000
48.84714 578.000
48.88770 518.000
48.92826 500.000
48.96882 537.000
49.00938 502.000
49.04994 524.000
49.09050 472.000
49.13106 541.000
49.17162 550.000
49.21218 519.000
49.25274 552.000
49.29330 511.000
49.33386 551.000
49.37442 543.000
49.41498 571.000
49.45554 563.000
49.49610 553.000
49.53666 605.000
49.57722 558.000
49.61778 541.000
49.65834 510.000
49.69890 638.000
49.73946 537.000
49.78002 574.000
49.82058 566.000
49.86114 548.000
49.90170 567.000
49.94226 578.000
49.98282 582.000
50.00310 550.000