File: Task01/nick/files/ESI_material_XRD/kinetics/crystal_size_analysis/20ul IPA/2030_RVR_20ul_IPA_30m.xy
5.00155 865.000
5.04211 888.000
5.08267 795.000
5.12323 805.000
5.16379 752.000
5.20435 750.000
5.24491 771.000
5.28547 660.000
5.32603 709.000
5.36659 668.000
5.40715 697.000
5.44771 703.000
5.48827 678.000
5.52883 670.000
5.56939 638.000
5.60995 655.000
5.65051 632.000
5.69107 630.000
5.73163 607.000
5.77219 576.000
5.81275 627.000
5.85331 564.000
5.89387 546.000
5.93443 573.000
5.97499 561.000
6.01555 576.000
6.05611 545.000
6.09667 550.000
6.13723 578.000
6.17779 561.000
6.21835 571.000
6.25891 554.000
6.29947 578.000
6.34003 675.000
6.38059 621.000
6.42115 647.000
6.46171 686.000
6.50227 733.000
6.54283 733.000
6.58339 778.000
6.62395 918.000
6.66451 1143.000
6.70507 1640.000
6.74564 2247.000
6.78620 2976.000
6.82676 3419.000
6.86732 3288.000
6.90788 2504.000
6.94844 1529.000
6.98900 892.000
7.02956 623.000
7.07012 627.000
7.11068 551.000
7.15124 477.000
7.19180 477.000
7.23236 504.000
7.27292 424.000
7.31348 408.000
7.35404 428.000
7.39460 464.000
7.43516 434.000
7.47572 446.000
7.51628 459.000
7.55684 424.000
7.59740 410.000
7.63796 462.000
7.67852 423.000
7.71908 466.000
7.75964 397.000
7.80020 442.000
7.84076 441.000
7.88132 449.000
7.92188 456.000
7.96244 428.000
8.00300 485.000
8.04356 530.000
8.08412 576.000
8.12468 635.000
8.16524 761.000
8.20580 946.000
8.24636 1304.000
8.28692 1766.000
8.32748 2503.000
8.36804 3390.000
8.40860 3644.000
8.44916 3145.000
8.48972 2135.000
8.53028 1629.000
8.57084 1607.000
8.61140 1844.000
8.65197 1918.000
8.69253 1756.000
8.73309 1357.000
8.77365 986.000
8.81421 727.000
8.85477 654.000
8.89533 543.000
8.93589 510.000
8.97645 523.000
9.01701 485.000
9.05757 458.000
9.09813 427.000
9.13869 455.000
9.17925 479.000
9.21981 509.000
9.26037 473.000
9.30093 596.000
9.34149 570.000
9.38205 765.000
9.42261 947.000
9.46317 1092.000
9.50373 1194.000
9.54429 1128.000
9.58485 922.000
9.62541 762.000
9.66597 712.000
9.70653 709.000
9.74709 831.000
9.78765 951.000
9.82821 1315.000
9.86877 1417.000
9.90933 1363.000
9.94989 1179.000
9.99045 800.000
10.03101 662.000
10.07157 548.000
10.11213 513.000
10.15269 479.000
10.19325 483.000
10.23381 413.000
10.27437 412.000
10.31493 426.000
10.35549 483.000
10.39605 494.000
10.43661 580.000
10.47717 599.000
10.51773 730.000
10.55830 832.000
10.59886 850.000
10.63942 731.000
10.67998 648.000
10.72054 524.000
10.76110 552.000
10.80166 638.000
10.84222 614.000
10.88278 758.000
10.92334 923.000
10.96390 1017.000
11.00446 1009.000
11.04502 794.000
11.08558 582.000
11.12614 523.000
11.16670 423.000
11.20726 396.000
11.24782 398.000
11.28838 404.000
11.32894 367.000
11.36950 373.000
11.41006 366.000
11.45062 376.000
11.49118 399.000
11.53174 338.000
11.57230 393.000
11.61286 349.000
11.65342 339.000
11.69398 345.000
11.73454 346.000
11.77510 381.000
11.81566 387.000
11.85622 349.000
11.89678 361.000
11.93734 381.000
11.97790 359.000
12.01846 365.000
12.05902 358.000
12.09958 376.000
12.14014 378.000
12.18070 374.000
12.22126 347.000
12.26182 402.000
12.30238 379.000
12.34294 398.000
12.38350 391.000
12.42406 373.000
12.46463 354.000
12.50519 375.000
12.54575 359.000
12.58631 398.000
12.62687 359.000
12.66743 384.000
12.70799 388.000
12.74855 387.000
12.78911 359.000
12.82967 401.000
12.87023 395.000
12.91079 445.000
12.95135 441.000
12.99191 459.000
13.03247 523.000
13.07303 522.000
13.11359 593.000
13.15415 565.000
13.19471 717.000
13.23527 859.000
13.27583 913.000
13.31639 875.000
13.35695 812.000
13.39751 905.000
13.43807 858.000
13.47863 874.000
13.51919 1037.000
13.55975 1285.000
13.60031 1360.000
13.64087 1366.000
13.68143 1421.000
13.72199 1342.000
13.76255 1329.000
13.80311 1233.000
13.84367 993.000
13.88423 796.000
13.92479 706.000
13.96535 497.000
14.00591 511.000
14.04647 482.000
14.08703 423.000
14.12759 462.000
14.16815 458.000
14.20871 394.000
14.24927 459.000
14.28983 400.000
14.33039 412.000
14.37096 426.000
14.41152 484.000
14.45208 486.000
14.49264 556.000
14.53320 648.000
14.57376 768.000
14.61432 995.000
14.65488 1277.000
14.69544 1437.000
14.73600 1258.000
14.77656 1095.000
14.81712 920.000
14.85768 837.000
14.89824 1047.000
14.93880 1108.000
14.97936 982.000
15.01992 790.000
15.06048 629.000
15.10104 543.000
15.14160 480.000
15.18216 459.000
15.22272 471.000
15.26328 477.000
15.30384 439.000
15.34440 493.000
15.38496 454.000
15.42552 517.000
15.46608 526.000
15.50664 513.000
15.54720 570.000
15.58776 631.000
15.62832 652.000
15.66888 673.000
15.70944 677.000
15.75000 623.000
15.79056 636.000
15.83112 626.000
15.87168 705.000
15.91224 795.000
15.95280 926.000
15.99336 1135.000
16.03392 1274.000
16.07448 1434.000
16.11504 1497.000
16.15560 1452.000
16.19616 1295.000
16.23672 1227.000
16.27729 1408.000
16.31785 1793.000
16.35841 2173.000
16.39897 2493.000
16.43953 2530.000
16.48009 2096.000
16.52065 1851.000
16.56121 1862.000
16.60177 1935.000
16.64233 2122.000
16.68289 2352.000
16.72345 2344.000
16.76401 2274.000
16.80457 2379.000
16.84513 2130.000
16.88569 1827.000
16.92625 1584.000
16.96681 1491.000
17.00737 1790.000
17.04793 2104.000
17.08849 2535.000
17.12905 2984.000
17.16961 2929.000
17.21017 2548.000
17.25073 2210.000
17.29129 2015.000
17.33185 2014.000
17.37241 2066.000
17.41297 1839.000
17.45353 1457.000
17.49409 1267.000
17.53465 1113.000
17.57521 1213.000
17.61577 1359.000
17.65633 1552.000
17.69689 2108.000
17.73745 2856.000
17.77801 3366.000
17.81857 3312.000
17.85913 2818.000
17.89969 2195.000
17.94025 2097.000
17.98081 2387.000
18.02137 2975.000
18.06193 3489.000
18.10249 4218.000
18.14305 4352.000
18.18362 4099.000
18.22418 3377.000
18.26474 3059.000
18.30530 3067.000
18.34586 3183.000
18.38642 3238.000
18.42698 3104.000
18.46754 2560.000
18.50810 2225.000
18.54866 1839.000
18.58922 1798.000
18.62978 1996.000
18.67034 2292.000
18.71090 2533.000
18.75146 2573.000
18.79202 2319.000
18.83258 2184.000
18.87314 2040.000
18.91370 2176.000
18.95426 2071.000
18.99482 2052.000
19.03538 1891.000
19.07594 1720.000
19.11650 1556.000
19.15706 1290.000
19.19762 1208.000
19.23818 1125.000
19.27874 1269.000
19.31930 1435.000
19.35986 1714.000
19.40042 1997.000
19.44098 2461.000
19.48154 2873.000
19.52210 3460.000
19.56266 3562.000
19.60322 3162.000
19.64378 2548.000
19.68434 2220.000
19.72490 2317.000
19.76546 2361.000
19.80602 2709.000
19.84658 3031.000
19.88714 3309.000
19.92770 3653.000
19.96826 3705.000
20.00882 3728.000
20.04938 3342.000
20.08995 3180.000
20.13051 2921.000
20.17107 2641.000
20.21163 2714.000
20.25219 2761.000
20.29275 2796.000
20.33331 3059.000
20.37387 3351.000
20.41443 3100.000
20.45499 2480.000
20.49555 2097.000
20.53611 1981.000
20.57667 2080.000
20.61723 2147.000
20.65779 2251.000
20.69835 2073.000
20.73891 1659.000
20.77947 1318.000
20.82003 1190.000
20.86059 1123.000
20.90115 1118.000
20.94171 1098.000
20.98227 1144.000
21.02283 1129.000
21.06339 1212.000
21.10395 1302.000
21.14451 1517.000
21.18507 1729.000
21.22563 2005.000
21.26619 2445.000
21.30675 2997.000
21.34731 3754.000
21.38787 4648.000
21.42843 5682.000
21.46899 6348.000
21.50955 6971.000
21.55011 7327.000
21.59067 7461.000
21.63123 7145.000
21.67179 6828.000
21.71235 5943.000
21.75291 4725.000
21.79347 3525.000
21.83403 2636.000
21.87459 1847.000
21.91515 1537.000
21.95571 1364.000
21.99628 1276.000
22.03684 1220.000
22.07740 1306.000
22.11796 1470.000
22.15852 1449.000
22.19908 1481.000
22.23964 1356.000
22.28020 1252.000
22.32076 1205.000
22.36132 1147.000
22.40188 1172.000
22.44244 1114.000
22.48300 1247.000
22.52356 1335.000
22.56412 1364.000
22.60468 1445.000
22.64524 1197.000
22.68580 1267.000
22.72636 1321.000
22.76692 1242.000
22.80748 1360.000
22.84804 1350.000
22.88860 1382.000
22.92916 1341.000
22.96972 1330.000
23.01028 1285.000
23.05084 1283.000
23.09140 1155.000
23.13196 1016.000
23.17252 965.000
23.21308 1032.000
23.25364 1075.000
23.29420 1122.000
23.33476 1285.000
23.37532 1591.000
23.41588 1710.000
23.45644 2136.000
23.49700 2335.000
23.53756 2441.000
23.57812 2416.000
23.61868 2195.000
23.65924 1942.000
23.69980 1759.000
23.74036 1572.000
23.78092 1356.000
23.82148 1366.000
23.86204 1375.000
23.90261 1278.000
23.94317 1201.000
23.98373 1187.000
24.02429 1182.000
24.06485 1150.000
24.10541 1200.000
24.14597 1159.000
24.18653 1301.000
24.22709 1291.000
24.26765 1253.000
24.30821 1372.000
24.34877 1509.000
24.38933 1737.000
24.42989 1881.000
24.47045 1796.000
24.51101 1532.000
24.55157 1192.000
24.59213 1138.000
24.63269 1025.000
24.67325 1071.000
24.71381 1276.000
24.75437 1278.000
24.79493 1284.000
24.83549 1313.000
24.87605 1074.000
24.91661 1101.000
24.95717 1001.000
24.99773 979.000
25.03829 967.000
25.07885 1171.000
25.11941 1224.000
25.15997 1399.000
25.20053 1669.000
25.24109 1766.000
25.28165 1803.000
25.32221 1931.000
25.36277 1886.000
25.40333 1806.000
25.44389 1660.000
25.48445 1512.000
25.52501 1371.000
25.56557 1184.000
25.60613 1082.000
25.64669 981.000
25.68725 962.000
25.72781 942.000
25.76837 929.000
25.80893 1071.000
25.84950 1130.000
25.89006 1072.000
25.93062 1215.000
25.97118 1270.000
26.01174 1414.000
26.05230 1719.000
26.09286 1659.000
26.13342 1743.000
26.17398 1633.000
26.21454 1463.000
26.25510 1382.000
26.29566 1443.000
26.33622 1275.000
26.37678 1278.000
26.41734 1392.000
26.45790 1327.000
26.49846 1347.000
26.53902 1356.000
26.57958 1306.000
26.62014 1367.000
26.66070 1227.000
26.70126 1162.000
26.74182 1190.000
26.78238 1111.000
26.82294 1162.000
26.86350 1182.000
26.90406 1365.000
26.94462 1385.000
26.98518 1452.000
27.02574 1404.000
27.06630 1268.000
27.10686 1230.000
27.14742 1147.000
27.18798 1089.000
27.22854 1025.000
27.26910 1021.000
27.30966 985.000
27.35022 1006.000
27.39078 1053.000
27.43134 1026.000
27.47190 1048.000
27.51246 1069.000
27.55302 1103.000
27.59358 890.000
27.63414 858.000
27.67470 694.000
27.71526 651.000
27.75583 601.000
27.79639 631.000
27.83695 578.000
27.87751 552.000
27.91807 584.000
27.95863 582.000
27.99919 608.000
28.03975 581.000
28.08031 556.000
28.12087 622.000
28.16143 614.000
28.20199 672.000
28.24255 651.000
28.28311 727.000
28.32367 765.000
28.36423 907.000
28.40479 948.000
28.44535 1037.000
28.48591 1182.000
28.52647 1230.000
28.56703 1276.000
28.60759 1410.000
28.64815 1300.000
28.68871 1233.000
28.72927 1167.000
28.76983 1092.000
28.81039 996.000
28.85095 931.000
28.89151 932.000
28.93207 912.000
28.97263 913.000
29.01319 906.000
29.05375 893.000
29.09431 934.000
29.13487 910.000
29.17543 861.000
29.21599 878.000
29.25655 820.000
29.29711 807.000
29.33767 863.000
29.37823 802.000
29.41879 859.000
29.45935 797.000
29.49991 820.000
29.54047 775.000
29.58103 853.000
29.62159 853.000
29.66216 873.000
29.70272 967.000
29.74328 1048.000
29.78384 1087.000
29.82440 1234.000
29.86496 1162.000
29.90552 1172.000
29.94608 1195.000
29.98664 1125.000
30.02720 1145.000
30.06776 1086.000
30.10832 1039.000
30.14888 1005.000
30.18944 897.000
30.23000 849.000
30.27056 897.000
30.31112 873.000
30.35168 817.000
30.39224 855.000
30.43280 837.000
30.47336 864.000
30.51392 748.000
30.55448 710.000
30.59504 644.000
30.63560 559.000
30.67616 630.000
30.71672 544.000
30.75728 599.000
30.79784 594.000
30.83840 629.000
30.87896 573.000
30.91952 640.000
30.96008 657.000
31.00064 678.000
31.04120 671.000
31.08176 722.000
31.12232 780.000
31.16288 754.000
31.20344 780.000
31.24400 774.000
31.28456 780.000
31.32512 785.000
31.36568 729.000
31.40624 726.000
31.44680 755.000
31.48736 799.000
31.52792 764.000
31.56849 801.000
31.60905 821.000
31.64961 928.000
31.69017 907.000
31.73073 926.000
31.77129 870.000
31.81185 849.000
31.85241 770.000
31.89297 741.000
31.93353 801.000
31.97409 788.000
32.01465 738.000
32.05521 746.000
32.09577 774.000
32.13633 749.000
32.17689 712.000
32.21745 658.000
32.25801 634.000
32.29857 625.000
32.33913 611.000
32.37969 603.000
32.42025 623.000
32.46081 634.000
32.50137 556.000
32.54193 600.000
32.58249 569.000
32.62305 577.000
32.66361 587.000
32.70417 558.000
32.74473 602.000
32.78529 573.000
32.82585 560.000
32.86641 587.000
32.90697 581.000
32.94753 622.000
32.98809 616.000
33.02865 653.000
33.06921 711.000
33.10977 747.000
33.15033 682.000
33.19089 680.000
33.23145 705.000
33.27201 701.000
33.31257 695.000
33.35313 706.000
33.39369 722.000
33.43425 665.000
33.47482 647.000
33.51538 639.000
33.55594 632.000
33.59650 610.000
33.63706 615.000
33.67762 615.000
33.71818 595.000
33.75874 549.000
33.79930 577.000
33.83986 568.000
33.88042 571.000
33.92098 611.000
33.96154 608.000
34.00210 627.000
34.04266 606.000
34.08322 552.000
34.12378 544.000
34.16434 589.000
34.20490 635.000
34.24546 627.000
34.28602 653.000
34.32658 643.000
34.36714 687.000
34.40770 645.000
34.44826 714.000
34.48882 759.000
34.52938 785.000
34.56994 885.000
34.61050 920.000
34.65106 929.000
34.69162 869.000
34.73218 804.000
34.77274 786.000
34.81330 763.000
34.85386 773.000
34.89442 868.000
34.93498 878.000
34.97554 874.000
35.01610 826.000
35.05666 821.000
35.09722 808.000
35.13778 767.000
35.17834 752.000
35.21890 644.000
35.25946 722.000
35.30002 680.000
35.34058 582.000
35.38115 667.000
35.42171 604.000
35.46227 650.000
35.50283 622.000
35.54339 627.000
35.58395 597.000
35.62451 573.000
35.66507 629.000
35.70563 558.000
35.74619 510.000
35.78675 538.000
35.82731 556.000
35.86787 531.000
35.90843 568.000
35.94899 537.000
35.98955 565.000
36.03011 623.000
36.07067 647.000
36.11123 587.000
36.15179 718.000
36.19235 714.000
36.23291 723.000
36.27347 786.000
36.31403 713.000
36.35459 693.000
36.39515 709.000
36.43571 693.000
36.47627 682.000
36.51683 671.000
36.55739 679.000
36.59795 720.000
36.63851 765.000
36.67907 723.000
36.71963 721.000
36.76019 733.000
36.80075 767.000
36.84131 730.000
36.88187 769.000
36.92243 725.000
36.96299 637.000
37.00355 649.000
37.04411 657.000
37.08467 636.000
37.12523 639.000
37.16579 608.000
37.20635 637.000
37.24691 615.000
37.28748 653.000
37.32804 609.000
37.36860 593.000
37.40916 613.000
37.44972 627.000
37.49028 546.000
37.53084 550.000
37.57140 567.000
37.61196 540.000
37.65252 574.000
37.69308 571.000
37.73364 560.000
37.77420 548.000
37.81476 614.000
37.85532 594.000
37.89588 612.000
37.93644 675.000
37.97700 663.000
38.01756 733.000
38.05812 662.000
38.09868 633.000
38.13924 661.000
38.17980 607.000
38.22036 607.000
38.26092 601.000
38.30148 583.000
38.34204 613.000
38.38260 629.000
38.42316 594.000
38.46372 662.000
38.50428 635.000
38.54484 611.000
38.58540 580.000
38.62596 580.000
38.66652 607.000
38.70708 510.000
38.74764 518.000
38.78820 557.000
38.82876 575.000
38.86932 559.000
38.90988 549.000
38.95044 558.000
38.99100 622.000
39.03156 600.000
39.07212 562.000
39.11268 622.000
39.15324 573.000
39.19381 589.000
39.23437 560.000
39.27493 554.000
39.31549 558.000
39.35605 583.000
39.39661 545.000
39.43717 575.000
39.47773 623.000
39.51829 621.000
39.55885 603.000
39.59941 617.000
39.63997 670.000
39.68053 692.000
39.72109 639.000
39.76165 644.000
39.80221 629.000
39.84277 588.000
39.88333 559.000
39.92389 560.000
39.96445 628.000
40.00501 602.000
40.04557 617.000
40.08613 654.000
40.12669 658.000
40.16725 723.000
40.20781 682.000
40.24837 684.000
40.28893 714.000
40.32949 725.000
40.37005 711.000
40.41061 760.000
40.45117 785.000
40.49173 714.000
40.53229 765.000
40.57285 683.000
40.61341 714.000
40.65397 657.000
40.69453 640.000
40.73509 584.000
40.77565 603.000
40.81621 597.000
40.85677 502.000
40.89733 531.000
40.93789 538.000
40.97845 561.000
41.01901 538.000
41.05957 589.000
41.10014 589.000
41.14070 555.000
41.18126 560.000
41.22182 600.000
41.26238 592.000
41.30294 603.000
41.34350 576.000
41.38406 615.000
41.42462 622.000
41.46518 625.000
41.50574 600.000
41.54630 605.000
41.58686 626.000
41.62742 647.000
41.66798 643.000
41.70854 658.000
41.74910 649.000
41.78966 679.000
41.83022 645.000
41.87078 542.000
41.91134 614.000
41.95190 587.000
41.99246 560.000
42.03302 491.000
42.07358 521.000
42.11414 501.000
42.15470 459.000
42.19526 495.000
42.23582 520.000
42.27638 471.000
42.31694 462.000
42.35750 507.000
42.39806 444.000
42.43862 507.000
42.47918 485.000
42.51974 536.000
42.56030 480.000
42.60086 505.000
42.64142 472.000
42.68198 529.000
42.72254 496.000
42.76310 493.000
42.80366 470.000
42.84422 509.000
42.88478 482.000
42.92534 494.000
42.96590 500.000
43.00647 497.000
43.04703 502.000
43.08759 546.000
43.12815 532.000
43.16871 576.000
43.20927 567.000
43.24983 602.000
43.29039 575.000
43.33095 642.000
43.37151 618.000
43.41207 599.000
43.45263 560.000
43.49319 608.000
43.53375 598.000
43.57431 612.000
43.61487 599.000
43.65543 591.000
43.69599 612.000
43.73655 655.000
43.77711 618.000
43.81767 656.000
43.85823 619.000
43.89879 639.000
43.93935 609.000
43.97991 644.000
44.02047 658.000
44.06103 585.000
44.10159 644.000
44.14215 648.000
44.18271 631.000
44.22327 613.000
44.26383 573.000
44.30439 602.000
44.34495 614.000
44.38551 567.000
44.42607 577.000
44.46663 568.000
44.50719 593.000
44.54775 577.000
44.58831 601.000
44.62887 535.000
44.66943 583.000
44.70999 515.000
44.75055 533.000
44.79111 547.000
44.83167 608.000
44.87223 558.000
44.91280 594.000
44.95336 546.000
44.99392 542.000
45.03448 566.000
45.07504 538.000
45.11560 551.000
45.15616 515.000
45.19672 519.000
45.23728 513.000
45.27784 510.000
45.31840 516.000
45.35896 520.000
45.39952 501.000
45.44008 513.000
45.48064 550.000
45.52120 510.000
45.56176 544.000
45.60232 549.000
45.64288 545.000
45.68344 526.000
45.72400 560.000
45.76456 536.000
45.80512 519.000
45.84568 552.000
45.88624 531.000
45.92680 517.000
45.96736 547.000
46.00792 519.000
46.04848 530.000
46.08904 520.000
46.12960 476.000
46.17016 536.000
46.21072 509.000
46.25128 555.000
46.29184 545.000
46.33240 526.000
46.37296 516.000
46.41352 591.000
46.45408 588.000
46.49464 560.000
46.53520 571.000
46.57576 591.000
46.61632 580.000
46.65688 626.000
46.69744 586.000
46.73800 547.000
46.77856 493.000
46.81913 519.000
46.85969 515.000
46.90025 556.000
46.94081 517.000
46.98137 535.000
47.02193 500.000
47.06249 525.000
47.10305 511.000
47.14361 543.000
47.18417 517.000
47.22473 528.000
47.26529 532.000
47.30585 555.000
47.34641 580.000
47.38697 589.000
47.42753 580.000
47.46809 600.000
47.50865 530.000
47.54921 535.000
47.58977 581.000
47.63033 517.000
47.67089 541.000
47.71145 530.000
47.75201 527.000
47.79257 501.000
47.83313 521.000
47.87369 487.000
47.91425 553.000
47.95481 556.000
47.99537 507.000
48.03593 508.000
48.07649 479.000
48.11705 514.000
48.15761 473.000
48.19817 495.000
48.23873 503.000
48.27929 470.000
48.31985 475.000
48.36041 453.000
48.40097 478.000
48.44153 471.000
48.48209 460.000
48.52265 477.000
48.56321 487.000
48.60377 465.000
48.64433 442.000
48.68489 442.000
48.72546 424.000
48.76602 446.000
48.80658 468.000
48.84714 462.000
48.88770 421.000
48.92826 450.000
48.96882 475.000
49.00938 427.000
49.04994 476.000
49.09050 450.000
49.13106 464.000
49.17162 486.000
49.21218 449.000
49.25274 456.000
49.29330 456.000
49.33386 450.000
49.37442 420.000
49.41498 437.000
49.45554 406.000
49.49610 456.000
49.53666 422.000
49.57722 421.000
49.61778 464.000
49.65834 423.000
49.69890 459.000
49.73946 461.000
49.78002 469.000
49.82058 472.000
49.86114 450.000
49.90170 490.000
49.94226 437.000
49.98282 494.000
50.02338 431.000
50.06394 481.000
50.10450 466.000
50.14506 472.000
50.18562 493.000
50.22618 484.000
50.26674 497.000
50.30730 489.000
50.34786 484.000
50.38842 495.000
50.42898 505.000
50.46954 503.000
50.51010 464.000
50.55066 469.000
50.59122 493.000
50.63179 454.000
50.67235 462.000
50.71291 476.000
50.75347 500.000
50.79403 452.000
50.83459 473.000
50.87515 458.000
50.91571 431.000
50.95627 444.000
50.99683 462.000