File: Task01/nick/files/ESI_material_XRD/kinetics/crystal_size_analysis/20ul IPA/2032_RVR_20ul_IPA_5m.xy
5.00155 969.000
5.04211 841.000
5.08267 831.000
5.12323 794.000
5.16379 793.000
5.20435 776.000
5.24491 821.000
5.28547 702.000
5.32603 783.000
5.36659 719.000
5.40715 704.000
5.44771 641.000
5.48827 679.000
5.52883 672.000
5.56939 589.000
5.60995 662.000
5.65051 592.000
5.69107 669.000
5.73163 639.000
5.77219 589.000
5.81275 578.000
5.85331 553.000
5.89387 510.000
5.93443 555.000
5.97499 586.000
6.01555 548.000
6.05611 518.000
6.09667 551.000
6.13723 513.000
6.17779 546.000
6.21835 551.000
6.25891 506.000
6.29947 515.000
6.34003 562.000
6.38059 579.000
6.42115 642.000
6.46171 672.000
6.50227 707.000
6.54283 718.000
6.58339 937.000
6.62395 1108.000
6.66451 1611.000
6.70507 2317.000
6.74564 3594.000
6.78620 5230.000
6.82676 6369.000
6.86732 5960.000
6.90788 4499.000
6.94844 2318.000
6.98900 1218.000
7.02956 841.000
7.07012 661.000
7.11068 636.000
7.15124 525.000
7.19180 600.000
7.23236 506.000
7.27292 505.000
7.31348 509.000
7.35404 496.000
7.39460 502.000
7.43516 466.000
7.47572 469.000
7.51628 485.000
7.55684 477.000
7.59740 449.000
7.63796 495.000
7.67852 398.000
7.71908 463.000
7.75964 457.000
7.80020 485.000
7.84076 452.000
7.88132 462.000
7.92188 443.000
7.96244 527.000
8.00300 497.000
8.04356 540.000
8.08412 652.000
8.12468 685.000
8.16524 943.000
8.20580 1258.000
8.24636 1721.000
8.28692 2591.000
8.32748 4125.000
8.36804 5977.000
8.40860 6914.000
8.44916 5362.000
8.48972 3146.000
8.53028 1796.000
8.57084 1479.000
8.61140 1681.000
8.65197 1810.000
8.69253 1533.000
8.73309 1083.000
8.77365 840.000
8.81421 687.000
8.85477 572.000
8.89533 552.000
8.93589 504.000
8.97645 498.000
9.01701 484.000
9.05757 440.000
9.09813 477.000
9.13869 490.000
9.17925 462.000
9.21981 493.000
9.26037 512.000
9.30093 476.000
9.34149 514.000
9.38205 619.000
9.42261 749.000
9.46317 902.000
9.50373 1097.000
9.54429 1054.000
9.58485 711.000
9.62541 591.000
9.66597 504.000
9.70653 519.000
9.74709 717.000
9.78765 782.000
9.82821 1126.000
9.86877 1406.000
9.90933 1359.000
9.94989 890.000
9.99045 656.000
10.03101 523.000
10.07157 496.000
10.11213 492.000
10.15269 449.000
10.19325 470.000
10.23381 420.000
10.27437 464.000
10.31493 475.000
10.35549 445.000
10.39605 536.000
10.43661 646.000
10.47717 775.000
10.51773 1011.000
10.55830 1198.000
10.59886 1345.000
10.63942 1072.000
10.67998 758.000
10.72054 564.000
10.76110 529.000
10.80166 546.000
10.84222 621.000
10.88278 697.000
10.92334 881.000
10.96390 974.000
11.00446 925.000
11.04502 718.000
11.08558 512.000
11.12614 432.000
11.16670 439.000
11.20726 421.000
11.24782 396.000
11.28838 417.000
11.32894 381.000
11.36950 400.000
11.41006 380.000
11.45062 398.000
11.49118 352.000
11.53174 396.000
11.57230 402.000
11.61286 368.000
11.65342 372.000
11.69398 410.000
11.73454 398.000
11.77510 368.000
11.81566 378.000
11.85622 391.000
11.89678 431.000
11.93734 365.000
11.97790 361.000
12.01846 401.000
12.05902 365.000
12.09958 402.000
12.14014 349.000
12.18070 377.000
12.22126 362.000
12.26182 399.000
12.30238 387.000
12.34294 429.000
12.38350 413.000
12.42406 412.000
12.46463 413.000
12.50519 427.000
12.54575 387.000
12.58631 402.000
12.62687 378.000
12.66743 407.000
12.70799 385.000
12.74855 406.000
12.78911 391.000
12.82967 380.000
12.87023 420.000
12.91079 443.000
12.95135 465.000
12.99191 479.000
13.03247 518.000
13.07303 530.000
13.11359 625.000
13.15415 778.000
13.19471 897.000
13.23527 1012.000
13.27583 1124.000
13.31639 1090.000
13.35695 1200.000
13.39751 1246.000
13.43807 1139.000
13.47863 1220.000
13.51919 1461.000
13.55975 1873.000
13.60031 1857.000
13.64087 1653.000
13.68143 1564.000
13.72199 1496.000
13.76255 1308.000
13.80311 1068.000
13.84367 953.000
13.88423 755.000
13.92479 612.000
13.96535 517.000
14.00591 467.000
14.04647 437.000
14.08703 458.000
14.12759 453.000
14.16815 452.000
14.20871 494.000
14.24927 487.000
14.28983 493.000
14.33039 423.000
14.37096 508.000
14.41152 521.000
14.45208 553.000
14.49264 637.000
14.53320 726.000
14.57376 993.000
14.61432 1463.000
14.65488 2159.000
14.69544 2605.000
14.73600 2161.000
14.77656 1555.000
14.81712 1147.000
14.85768 1137.000
14.89824 1411.000
14.93880 1647.000
14.97936 1590.000
15.01992 1112.000
15.06048 717.000
15.10104 597.000
15.14160 530.000
15.18216 514.000
15.22272 488.000
15.26328 480.000
15.30384 530.000
15.34440 478.000
15.38496 451.000
15.42552 488.000
15.46608 515.000
15.50664 524.000
15.54720 537.000
15.58776 655.000
15.62832 651.000
15.66888 661.000
15.70944 661.000
15.75000 591.000
15.79056 557.000
15.83112 590.000
15.87168 623.000
15.91224 652.000
15.95280 760.000
15.99336 879.000
16.03392 1156.000
16.07448 1392.000
16.11504 1409.000
16.15560 1270.000
16.19616 1131.000
16.23672 1302.000
16.27729 1683.000
16.31785 2609.000
16.35841 3452.000
16.39897 3867.000
16.43953 3667.000
16.48009 2809.000
16.52065 2086.000
16.56121 2012.000
16.60177 2115.000
16.64233 2577.000
16.68289 2966.000
16.72345 2928.000
16.76401 3082.000
16.80457 3431.000
16.84513 3196.000
16.88569 2497.000
16.92625 1960.000
16.96681 1811.000
17.00737 2295.000
17.04793 3399.000
17.08849 4510.000
17.12905 5422.000
17.16961 4913.000
17.21017 3730.000
17.25073 2573.000
17.29129 2186.000
17.33185 2152.000
17.37241 1956.000
17.41297 1727.000
17.45353 1306.000
17.49409 1020.000
17.53465 976.000
17.57521 909.000
17.61577 1060.000
17.65633 1209.000
17.69689 1590.000
17.73745 2269.000
17.77801 2923.000
17.81857 2907.000
17.85913 2395.000
17.89969 2095.000
17.94025 2325.000
17.98081 3083.000
18.02137 4314.000
18.06193 6243.000
18.10249 7772.000
18.14305 7971.000
18.18362 6400.000
18.22418 4456.000
18.26474 3384.000
18.30530 2815.000
18.34586 2978.000
18.38642 3077.000
18.42698 2804.000
18.46754 2292.000
18.50810 1835.000
18.54866 1743.000
18.58922 2194.000
18.62978 2729.000
18.67034 3424.000
18.71090 4059.000
18.75146 3966.000
18.79202 3288.000
18.83258 2670.000
18.87314 2403.000
18.91370 2149.000
18.95426 2084.000
18.99482 2136.000
19.03538 2080.000
19.07594 2010.000
19.11650 1782.000
19.15706 1333.000
19.19762 1197.000
19.23818 1123.000
19.27874 1227.000
19.31930 1395.000
19.35986 1671.000
19.40042 2134.000
19.44098 3106.000
19.48154 3969.000
19.52210 5048.000
19.56266 4903.000
19.60322 3964.000
19.64378 2995.000
19.68434 2427.000
19.72490 2252.000
19.76546 2521.000
19.80602 2929.000
19.84658 3414.000
19.88714 4083.000
19.92770 4930.000
19.96826 5207.000
20.00882 4705.000
20.04938 4132.000
20.08995 3406.000
20.13051 3159.000
20.17107 3182.000
20.21163 3426.000
20.25219 3451.000
20.29275 3733.000
20.33331 4609.000
20.37387 5201.000
20.41443 4392.000
20.45499 3179.000
20.49555 2105.000
20.53611 1793.000
20.57667 1890.000
20.61723 2113.000
20.65779 2171.000
20.69835 1934.000
20.73891 1574.000
20.77947 1321.000
20.82003 1139.000
20.86059 1116.000
20.90115 1165.000
20.94171 1168.000
20.98227 1136.000
21.02283 1259.000
21.06339 1258.000
21.10395 1492.000
21.14451 1785.000
21.18507 2010.000
21.22563 2446.000
21.26619 2955.000
21.30675 3809.000
21.34731 5172.000
21.38787 6823.000
21.42843 8398.000
21.46899 9787.000
21.50955 10879.000
21.55011 11454.000
21.59067 11662.000
21.63123 11320.000
21.67179 10473.000
21.71235 8778.000
21.75291 6751.000
21.79347 4516.000
21.83403 3085.000
21.87459 2127.000
21.91515 1646.000
21.95571 1414.000
21.99628 1298.000
22.03684 1216.000
22.07740 1306.000
22.11796 1250.000
22.15852 1438.000
22.19908 1445.000
22.23964 1326.000
22.28020 1277.000
22.32076 1123.000
22.36132 1252.000
22.40188 1312.000
22.44244 1469.000
22.48300 1608.000
22.52356 1709.000
22.56412 1753.000
22.60468 1603.000
22.64524 1473.000
22.68580 1359.000
22.72636 1443.000
22.76692 1450.000
22.80748 1485.000
22.84804 1602.000
22.88860 1702.000
22.92916 1679.000
22.96972 1649.000
23.01028 1649.000
23.05084 1627.000
23.09140 1457.000
23.13196 1181.000
23.17252 1036.000
23.21308 1037.000
23.25364 1087.000
23.29420 1300.000
23.33476 1529.000
23.37532 1802.000
23.41588 2379.000
23.45644 2889.000
23.49700 3396.000
23.53756 3921.000
23.57812 3879.000
23.61868 3252.000
23.65924 2793.000
23.69980 2335.000
23.74036 1920.000
23.78092 1868.000
23.82148 1697.000
23.86204 1607.000
23.90261 1531.000
23.94317 1357.000
23.98373 1220.000
24.02429 1149.000
24.06485 1125.000
24.10541 1064.000
24.14597 1253.000
24.18653 1209.000
24.22709 1329.000
24.26765 1356.000
24.30821 1692.000
24.34877 2050.000
24.38933 2408.000
24.42989 2806.000
24.47045 2568.000
24.51101 2043.000
24.55157 1597.000
24.59213 1234.000
24.63269 1188.000
24.67325 1258.000
24.71381 1392.000
24.75437 1590.000
24.79493 1589.000
24.83549 1383.000
24.87605 1175.000
24.91661 1125.000
24.95717 1044.000
24.99773 978.000
25.03829 1132.000
25.07885 1269.000
25.11941 1488.000
25.15997 1776.000
25.20053 2009.000
25.24109 2156.000
25.28165 2310.000
25.32221 2237.000
25.36277 2041.000
25.40333 1953.000
25.44389 1731.000
25.48445 1845.000
25.52501 1739.000
25.56557 1418.000
25.60613 1221.000
25.64669 1145.000
25.68725 955.000
25.72781 960.000
25.76837 1011.000
25.80893 1036.000
25.84950 1076.000
25.89006 1233.000
25.93062 1314.000
25.97118 1560.000
26.01174 1787.000
26.05230 2035.000
26.09286 2230.000
26.13342 2234.000
26.17398 1917.000
26.21454 1826.000
26.25510 1515.000
26.29566 1451.000
26.33622 1408.000
26.37678 1505.000
26.41734 1381.000
26.45790 1519.000
26.49846 1709.000
26.53902 1767.000
26.57958 1850.000
26.62014 1829.000
26.66070 1619.000
26.70126 1583.000
26.74182 1509.000
26.78238 1298.000
26.82294 1424.000
26.86350 1531.000
26.90406 1706.000
26.94462 1828.000
26.98518 1981.000
27.02574 1869.000
27.06630 1766.000
27.10686 1668.000
27.14742 1525.000
27.18798 1461.000
27.22854 1383.000
27.26910 1234.000
27.30966 1261.000
27.35022 1297.000
27.39078 1226.000
27.43134 1402.000
27.47190 1506.000
27.51246 1473.000
27.55302 1394.000
27.59358 1265.000
27.63414 973.000
27.67470 869.000
27.71526 772.000
27.75583 744.000
27.79639 688.000
27.83695 673.000
27.87751 679.000
27.91807 622.000
27.95863 617.000
27.99919 618.000
28.03975 637.000
28.08031 674.000
28.12087 658.000
28.16143 670.000
28.20199 699.000
28.24255 706.000
28.28311 815.000
28.32367 938.000
28.36423 1025.000
28.40479 1086.000
28.44535 1250.000
28.48591 1306.000
28.52647 1472.000
28.56703 1500.000
28.60759 1520.000
28.64815 1507.000
28.68871 1432.000
28.72927 1244.000
28.76983 1125.000
28.81039 1053.000
28.85095 949.000
28.89151 997.000
28.93207 1025.000
28.97263 1043.000
29.01319 1047.000
29.05375 1204.000
29.09431 1186.000
29.13487 1223.000
29.17543 1140.000
29.21599 1150.000
29.25655 1016.000
29.29711 1016.000
29.33767 1071.000
29.37823 1030.000
29.41879 1078.000
29.45935 1031.000
29.49991 975.000
29.54047 997.000
29.58103 992.000
29.62159 1010.000
29.66216 1080.000
29.70272 1127.000
29.74328 1210.000
29.78384 1273.000
29.82440 1408.000
29.86496 1399.000
29.90552 1394.000
29.94608 1276.000
29.98664 1282.000
30.02720 1254.000
30.06776 1239.000
30.10832 1175.000
30.14888 1171.000
30.18944 1019.000
30.23000 939.000
30.27056 900.000
30.31112 948.000
30.35168 881.000
30.39224 961.000
30.43280 1064.000
30.47336 1010.000
30.51392 947.000
30.55448 830.000
30.59504 707.000
30.63560 666.000
30.67616 656.000
30.71672 608.000
30.75728 626.000
30.79784 599.000
30.83840 660.000
30.87896 619.000
30.91952 703.000
30.96008 679.000
31.00064 739.000
31.04120 831.000
31.08176 871.000
31.12232 909.000
31.16288 899.000
31.20344 905.000
31.24400 833.000
31.28456 907.000
31.32512 790.000
31.36568 725.000
31.40624 777.000
31.44680 697.000
31.48736 680.000
31.52792 731.000
31.56849 766.000
31.60905 819.000
31.64961 883.000
31.69017 860.000
31.73073 915.000
31.77129 860.000
31.81185 928.000
31.85241 940.000
31.89297 865.000
31.93353 857.000
31.97409 880.000
32.01465 906.000
32.05521 846.000
32.09577 806.000
32.13633 855.000
32.17689 784.000
32.21745 772.000
32.25801 706.000
32.29857 695.000
32.33913 711.000
32.37969 746.000
32.42025 667.000
32.46081 645.000
32.50137 620.000
32.54193 610.000
32.58249 581.000
32.62305 578.000
32.66361 594.000
32.70417 636.000
32.74473 598.000
32.78529 666.000
32.82585 678.000
32.86641 633.000
32.90697 695.000
32.94753 777.000
32.98809 757.000
33.02865 748.000
33.06921 785.000
33.10977 791.000
33.15033 827.000
33.19089 791.000
33.23145 810.000
33.27201 797.000
33.31257 910.000
33.35313 988.000
33.39369 841.000
33.43425 863.000
33.47482 801.000
33.51538 789.000
33.55594 654.000
33.59650 662.000
33.63706 644.000
33.67762 665.000
33.71818 643.000
33.75874 621.000
33.79930 603.000
33.83986 598.000
33.88042 626.000
33.92098 636.000
33.96154 657.000
34.00210 655.000
34.04266 719.000
34.08322 697.000
34.12378 713.000
34.16434 733.000
34.20490 756.000
34.24546 758.000
34.28602 732.000
34.32658 783.000
34.36714 808.000
34.40770 839.000
34.44826 889.000
34.48882 974.000
34.52938 1109.000
34.56994 1254.000
34.61050 1381.000
34.65106 1265.000
34.69162 1228.000
34.73218 1035.000
34.77274 960.000
34.81330 965.000
34.85386 966.000
34.89442 1030.000
34.93498 1000.000
34.97554 1093.000
35.01610 1105.000
35.05666 987.000
35.09722 918.000
35.13778 925.000
35.17834 802.000
35.21890 791.000
35.25946 791.000
35.30002 737.000
35.34058 726.000
35.38115 694.000
35.42171 694.000
35.46227 682.000
35.50283 711.000
35.54339 698.000
35.58395 735.000
35.62451 698.000
35.66507 711.000
35.70563 638.000
35.74619 616.000
35.78675 593.000
35.82731 551.000
35.86787 596.000
35.90843 565.000
35.94899 604.000
35.98955 599.000
36.03011 617.000
36.07067 642.000
36.11123 647.000
36.15179 717.000
36.19235 751.000
36.23291 757.000
36.27347 808.000
36.31403 810.000
36.35459 781.000
36.39515 782.000
36.43571 745.000
36.47627 791.000
36.51683 775.000
36.55739 829.000
36.59795 841.000
36.63851 836.000
36.67907 865.000
36.71963 944.000
36.76019 988.000
36.80075 895.000
36.84131 914.000
36.88187 951.000
36.92243 860.000
36.96299 824.000
37.00355 808.000
37.04411 787.000
37.08467 759.000
37.12523 784.000
37.16579 753.000
37.20635 781.000
37.24691 786.000
37.28748 723.000
37.32804 709.000
37.36860 671.000
37.40916 647.000
37.44972 625.000
37.49028 618.000
37.53084 635.000
37.57140 654.000
37.61196 653.000
37.65252 688.000
37.69308 603.000
37.73364 669.000
37.77420 713.000
37.81476 700.000
37.85532 750.000
37.89588 751.000
37.93644 752.000
37.97700 845.000
38.01756 807.000
38.05812 865.000
38.09868 826.000
38.13924 736.000
38.17980 712.000
38.22036 697.000
38.26092 680.000
38.30148 652.000
38.34204 657.000
38.38260 694.000
38.42316 683.000
38.46372 694.000
38.50428 706.000
38.54484 689.000
38.58540 656.000
38.62596 659.000
38.66652 657.000
38.70708 608.000
38.74764 610.000
38.78820 577.000
38.82876 572.000
38.86932 575.000
38.90988 602.000
38.95044 596.000
38.99100 611.000
39.03156 590.000
39.07212 634.000
39.11268 649.000
39.15324 628.000
39.19381 663.000
39.23437 598.000
39.27493 628.000
39.31549 626.000
39.35605 651.000
39.39661 652.000
39.43717 703.000
39.47773 701.000
39.51829 723.000
39.55885 707.000
39.59941 730.000
39.63997 808.000
39.68053 755.000
39.72109 772.000
39.76165 727.000
39.80221 685.000
39.84277 663.000
39.88333 719.000
39.92389 667.000
39.96445 713.000
40.00501 699.000
40.04557 761.000
40.08613 746.000
40.12669 837.000
40.16725 794.000
40.20781 868.000
40.24837 914.000
40.28893 838.000
40.32949 890.000
40.37005 882.000
40.41061 883.000
40.45117 859.000
40.49173 890.000
40.53229 906.000
40.57285 793.000
40.61341 785.000
40.65397 729.000
40.69453 647.000
40.73509 609.000
40.77565 621.000
40.81621 644.000
40.85677 608.000
40.89733 607.000
40.93789 614.000
40.97845 619.000
41.01901 584.000
41.05957 642.000
41.10014 618.000
41.14070 640.000
41.18126 651.000
41.22182 658.000
41.26238 669.000
41.30294 704.000
41.34350 753.000
41.38406 723.000
41.42462 695.000
41.46518 751.000
41.50574 746.000
41.54630 676.000
41.58686 781.000
41.62742 781.000
41.66798 790.000
41.70854 818.000
41.74910 806.000
41.78966 821.000
41.83022 795.000
41.87078 788.000
41.91134 749.000
41.95190 622.000
41.99246 612.000
42.03302 601.000
42.07358 563.000
42.11414 556.000
42.15470 530.000
42.19526 570.000
42.23582 555.000
42.27638 579.000
42.31694 511.000
42.35750 603.000
42.39806 533.000
42.43862 538.000
42.47918 572.000
42.51974 550.000
42.56030 524.000
42.60086 565.000
42.64142 537.000
42.68198 555.000
42.72254 549.000
42.76310 582.000
42.80366 554.000
42.84422 516.000
42.88478 524.000
42.92534 519.000
42.96590 581.000
43.00647 554.000
43.04703 549.000
43.08759 620.000
43.12815 594.000
43.16871 628.000
43.20927 636.000
43.24983 712.000
43.29039 718.000
43.33095 718.000
43.37151 677.000
43.41207 690.000
43.45263 706.000
43.49319 723.000
43.53375 711.000
43.57431 717.000
43.61487 724.000
43.65543 738.000
43.69599 710.000
43.73655 689.000
43.77711 694.000
43.81767 692.000
43.85823 773.000
43.89879 767.000
43.93935 715.000
43.97991 734.000
44.02047 756.000
44.06103 755.000
44.10159 747.000
44.14215 653.000
44.18271 706.000
44.22327 718.000
44.26383 679.000
44.30439 677.000
44.34495 617.000
44.38551 617.000
44.42607 586.000
44.46663 598.000
44.50719 593.000
44.54775 610.000
44.58831 636.000
44.62887 592.000
44.66943 591.000
44.70999 667.000
44.75055 654.000
44.79111 617.000
44.83167 651.000
44.87223 613.000
44.91280 614.000
44.95336 589.000
44.99392 640.000
45.03448 592.000
45.07504 636.000
45.11560 612.000
45.15616 579.000
45.19672 574.000
45.23728 584.000
45.27784 556.000
45.31840 570.000
45.35896 598.000
45.39952 565.000
45.44008 595.000
45.48064 577.000
45.52120 557.000
45.56176 605.000
45.60232 605.000
45.64288 611.000
45.68344 601.000
45.72400 646.000
45.76456 618.000
45.80512 607.000
45.84568 621.000
45.88624 575.000
45.92680 621.000
45.96736 626.000
46.00792 581.000
46.04848 590.000
46.08904 566.000
46.12960 593.000
46.17016 547.000
46.21072 615.000
46.25128 590.000
46.29184 585.000
46.33240 587.000
46.37296 624.000
46.41352 613.000
46.45408 641.000
46.49464 629.000
46.53520 636.000
46.57576 600.000
46.61632 642.000
46.65688 656.000
46.69744 646.000
46.73800 595.000
46.77856 604.000
46.81913 584.000
46.85969 601.000
46.90025 596.000
46.94081 566.000
46.98137 550.000
47.02193 579.000
47.06249 589.000
47.10305 580.000
47.14361 607.000
47.18417 607.000
47.22473 625.000
47.26529 633.000
47.30585 648.000
47.34641 669.000
47.38697 649.000
47.42753 688.000
47.46809 675.000
47.50865 638.000
47.54921 656.000
47.58977 654.000
47.63033 646.000
47.67089 612.000
47.71145 607.000
47.75201 608.000
47.79257 591.000
47.83313 585.000
47.87369 594.000
47.91425 581.000
47.95481 513.000
47.99537 586.000
48.03593 534.000
48.07649 535.000
48.11705 556.000
48.15761 543.000
48.19817 568.000
48.23873 526.000
48.27929 508.000
48.31985 557.000
48.36041 566.000
48.40097 538.000
48.44153 531.000
48.48209 494.000
48.52265 512.000
48.56321 505.000
48.60377 529.000
48.64433 522.000
48.68489 548.000
48.72546 485.000
48.76602 464.000
48.80658 501.000
48.84714 477.000
48.88770 453.000
48.92826 451.000
48.96882 503.000
49.00938 474.000
49.04994 497.000
49.09050 469.000
49.13106 534.000
49.17162 503.000
49.21218 518.000
49.25274 532.000
49.29330 499.000
49.33386 549.000
49.37442 499.000
49.41498 482.000
49.45554 532.000
49.49610 486.000
49.53666 501.000
49.57722 495.000
49.61778 466.000
49.65834 540.000
49.69890 480.000
49.73946 533.000
49.78002 478.000
49.82058 510.000
49.86114 534.000
49.90170 521.000
49.94226 480.000
49.98282 516.000
50.02338 510.000
50.06394 512.000
50.10450 512.000
50.14506 491.000
50.18562 551.000
50.22618 532.000
50.26674 552.000
50.30730 559.000
50.34786 565.000
50.38842 536.000
50.42898 641.000
50.46954 589.000
50.51010 560.000
50.55066 605.000
50.59122 596.000
50.63179 551.000
50.67235 560.000
50.71291 549.000
50.75347 515.000
50.79403 523.000
50.83459 524.000
50.87515 505.000
50.91571 466.000
50.95627 517.000
50.99683 507.000