File: Task01/nick/files/ESI_material_XRD/kinetics/crystal_size_analysis/20ul IPA/2034_RVR_20ul_IPA_1m.xy
5.00155 909.000
5.04211 793.000
5.08267 821.000
5.12323 774.000
5.16379 789.000
5.20435 759.000
5.24491 771.000
5.28547 721.000
5.32603 747.000
5.36659 651.000
5.40715 679.000
5.44771 675.000
5.48827 666.000
5.52883 667.000
5.56939 674.000
5.60995 611.000
5.65051 601.000
5.69107 572.000
5.73163 549.000
5.77219 606.000
5.81275 537.000
5.85331 588.000
5.89387 573.000
5.93443 546.000
5.97499 492.000
6.01555 532.000
6.05611 503.000
6.09667 530.000
6.13723 498.000
6.17779 497.000
6.21835 516.000
6.25891 494.000
6.29947 516.000
6.34003 558.000
6.38059 533.000
6.42115 590.000
6.46171 568.000
6.50227 622.000
6.54283 745.000
6.58339 771.000
6.62395 1159.000
6.66451 1694.000
6.70507 2568.000
6.74564 3943.000
6.78620 5069.000
6.82676 5670.000
6.86732 4635.000
6.90788 2919.000
6.94844 1525.000
6.98900 872.000
7.02956 621.000
7.07012 540.000
7.11068 520.000
7.15124 513.000
7.19180 469.000
7.23236 461.000
7.27292 423.000
7.31348 409.000
7.35404 384.000
7.39460 414.000
7.43516 423.000
7.47572 345.000
7.51628 434.000
7.55684 396.000
7.59740 410.000
7.63796 428.000
7.67852 391.000
7.71908 426.000
7.75964 354.000
7.80020 372.000
7.84076 391.000
7.88132 439.000
7.92188 427.000
7.96244 437.000
8.00300 464.000
8.04356 512.000
8.08412 573.000
8.12468 667.000
8.16524 892.000
8.20580 1127.000
8.24636 1774.000
8.28692 2675.000
8.32748 4336.000
8.36804 5718.000
8.40860 5747.000
8.44916 3798.000
8.48972 1926.000
8.53028 1334.000
8.57084 1165.000
8.61140 1310.000
8.65197 1278.000
8.69253 1015.000
8.73309 647.000
8.77365 523.000
8.81421 446.000
8.85477 445.000
8.89533 480.000
8.93589 391.000
8.97645 427.000
9.01701 403.000
9.05757 360.000
9.09813 377.000
9.13869 384.000
9.17925 397.000
9.21981 392.000
9.26037 367.000
9.30093 391.000
9.34149 429.000
9.38205 497.000
9.42261 619.000
9.46317 745.000
9.50373 784.000
9.54429 571.000
9.58485 447.000
9.62541 381.000
9.66597 387.000
9.70653 458.000
9.74709 476.000
9.78765 695.000
9.82821 801.000
9.86877 942.000
9.90933 793.000
9.94989 559.000
9.99045 431.000
10.03101 420.000
10.07157 413.000
10.11213 416.000
10.15269 389.000
10.19325 379.000
10.23381 350.000
10.27437 329.000
10.31493 408.000
10.35549 389.000
10.39605 452.000
10.43661 588.000
10.47717 730.000
10.51773 1030.000
10.55830 1154.000
10.59886 1014.000
10.63942 783.000
10.67998 584.000
10.72054 459.000
10.76110 422.000
10.80166 433.000
10.84222 473.000
10.88278 520.000
10.92334 660.000
10.96390 728.000
11.00446 567.000
11.04502 416.000
11.08558 419.000
11.12614 324.000
11.16670 341.000
11.20726 323.000
11.24782 339.000
11.28838 338.000
11.32894 327.000
11.36950 301.000
11.41006 321.000
11.45062 330.000
11.49118 340.000
11.53174 313.000
11.57230 357.000
11.61286 339.000
11.65342 299.000
11.69398 325.000
11.73454 323.000
11.77510 293.000
11.81566 333.000
11.85622 314.000
11.89678 332.000
11.93734 329.000
11.97790 314.000
12.01846 327.000
12.05902 296.000
12.09958 307.000
12.14014 288.000
12.18070 322.000
12.22126 359.000
12.26182 306.000
12.30238 329.000
12.34294 332.000
12.38350 338.000
12.42406 353.000
12.46463 326.000
12.50519 361.000
12.54575 336.000
12.58631 311.000
12.62687 341.000
12.66743 335.000
12.70799 331.000
12.74855 372.000
12.78911 370.000
12.82967 353.000
12.87023 353.000
12.91079 360.000
12.95135 355.000
12.99191 384.000
13.03247 419.000
13.07303 481.000
13.11359 558.000
13.15415 744.000
13.19471 845.000
13.23527 845.000
13.27583 886.000
13.31639 973.000
13.35695 1026.000
13.39751 1065.000
13.43807 954.000
13.47863 1153.000
13.51919 1459.000
13.55975 1623.000
13.60031 1461.000
13.64087 1284.000
13.68143 1156.000
13.72199 1125.000
13.76255 871.000
13.80311 747.000
13.84367 584.000
13.88423 486.000
13.92479 368.000
13.96535 352.000
14.00591 360.000
14.04647 385.000
14.08703 391.000
14.12759 398.000
14.16815 394.000
14.20871 382.000
14.24927 418.000
14.28983 420.000
14.33039 410.000
14.37096 396.000
14.41152 422.000
14.45208 475.000
14.49264 535.000
14.53320 705.000
14.57376 1034.000
14.61432 1536.000
14.65488 2043.000
14.69544 2109.000
14.73600 1713.000
14.77656 1117.000
14.81712 846.000
14.85768 1062.000
14.89824 1287.000
14.93880 1427.000
14.97936 1159.000
15.01992 814.000
15.06048 583.000
15.10104 487.000
15.14160 405.000
15.18216 435.000
15.22272 399.000
15.26328 403.000
15.30384 405.000
15.34440 352.000
15.38496 387.000
15.42552 390.000
15.46608 434.000
15.50664 408.000
15.54720 390.000
15.58776 478.000
15.62832 472.000
15.66888 483.000
15.70944 449.000
15.75000 474.000
15.79056 446.000
15.83112 439.000
15.87168 484.000
15.91224 533.000
15.95280 591.000
15.99336 711.000
16.03392 925.000
16.07448 1052.000
16.11504 961.000
16.15560 893.000
16.19616 992.000
16.23672 1270.000
16.27729 1705.000
16.31785 2460.000
16.35841 3153.000
16.39897 3476.000
16.43953 2817.000
16.48009 1958.000
16.52065 1614.000
16.56121 1638.000
16.60177 1915.000
16.64233 2298.000
16.68289 2323.000
16.72345 2442.000
16.76401 2655.000
16.80457 2957.000
16.84513 2594.000
16.88569 1910.000
16.92625 1670.000
16.96681 1692.000
17.00737 2385.000
17.04793 3410.000
17.08849 4478.000
17.12905 4850.000
17.16961 3728.000
17.21017 2560.000
17.25073 1646.000
17.29129 1462.000
17.33185 1447.000
17.37241 1372.000
17.41297 1024.000
17.45353 861.000
17.49409 750.000
17.53465 714.000
17.57521 705.000
17.61577 848.000
17.65633 987.000
17.69689 1240.000
17.73745 1667.000
17.77801 1952.000
17.81857 1797.000
17.85913 1542.000
17.89969 1780.000
17.94025 2203.000
17.98081 3010.000
18.02137 4544.000
18.06193 6327.000
18.10249 7435.000
18.14305 6535.000
18.18362 4628.000
18.22418 3024.000
18.26474 2173.000
18.30530 1895.000
18.34586 2037.000
18.38642 2096.000
18.42698 1787.000
18.46754 1490.000
18.50810 1379.000
18.54866 1503.000
18.58922 1932.000
18.62978 2596.000
18.67034 3264.000
18.71090 3524.000
18.75146 2949.000
18.79202 2446.000
18.83258 1923.000
18.87314 1578.000
18.91370 1573.000
18.95426 1598.000
18.99482 1623.000
19.03538 1635.000
19.07594 1584.000
19.11650 1363.000
19.15706 1021.000
19.19762 965.000
19.23818 948.000
19.27874 1036.000
19.31930 1326.000
19.35986 1647.000
19.40042 2085.000
19.44098 2894.000
19.48154 3871.000
19.52210 4284.000
19.56266 3785.000
19.60322 2957.000
19.64378 2254.000
19.68434 1964.000
19.72490 1899.000
19.76546 2193.000
19.80602 2453.000
19.84658 2900.000
19.88714 3716.000
19.92770 4192.000
19.96826 4210.000
20.00882 3796.000
20.04938 3097.000
20.08995 2520.000
20.13051 2485.000
20.17107 2758.000
20.21163 2927.000
20.25219 3153.000
20.29275 3550.000
20.33331 4086.000
20.37387 4252.000
20.41443 3342.000
20.45499 2175.000
20.49555 1530.000
20.53611 1318.000
20.57667 1411.000
20.61723 1573.000
20.65779 1543.000
20.69835 1221.000
20.73891 1002.000
20.77947 935.000
20.82003 844.000
20.86059 899.000
20.90115 958.000
20.94171 993.000
20.98227 988.000
21.02283 1073.000
21.06339 1177.000
21.10395 1269.000
21.14451 1594.000
21.18507 1929.000
21.22563 2309.000
21.26619 2948.000
21.30675 3898.000
21.34731 5246.000
21.38787 6788.000
21.42843 8038.000
21.46899 9068.000
21.50955 9877.000
21.55011 10208.000
21.59067 9951.000
21.63123 9229.000
21.67179 8278.000
21.71235 6742.000
21.75291 4629.000
21.79347 2905.000
21.83403 1923.000
21.87459 1406.000
21.91515 1165.000
21.95571 1063.000
21.99628 974.000
22.03684 1002.000
22.07740 943.000
22.11796 1037.000
22.15852 1139.000
22.19908 1035.000
22.23964 995.000
22.28020 992.000
22.32076 929.000
22.36132 1017.000
22.40188 1138.000
22.44244 1271.000
22.48300 1386.000
22.52356 1597.000
22.56412 1452.000
22.60468 1243.000
22.64524 1153.000
22.68580 1089.000
22.72636 1163.000
22.76692 1177.000
22.80748 1243.000
22.84804 1352.000
22.88860 1381.000
22.92916 1370.000
22.96972 1370.000
23.01028 1396.000
23.05084 1228.000
23.09140 1101.000
23.13196 980.000
23.17252 865.000
23.21308 929.000
23.25364 996.000
23.29420 1104.000
23.33476 1419.000
23.37532 1788.000
23.41588 2280.000
23.45644 2810.000
23.49700 3240.000
23.53756 3323.000
23.57812 3161.000
23.61868 2679.000
23.65924 2095.000
23.69980 1637.000
23.74036 1597.000
23.78092 1493.000
23.82148 1425.000
23.86204 1291.000
23.90261 1140.000
23.94317 1022.000
23.98373 921.000
24.02429 910.000
24.06485 840.000
24.10541 933.000
24.14597 973.000
24.18653 1009.000
24.22709 1114.000
24.26765 1285.000
24.30821 1468.000
24.34877 1867.000
24.38933 2196.000
24.42989 2316.000
24.47045 2051.000
24.51101 1625.000
24.55157 1201.000
24.59213 1065.000
24.63269 1056.000
24.67325 1141.000
24.71381 1235.000
24.75437 1335.000
24.79493 1167.000
24.83549 1046.000
24.87605 828.000
24.91661 817.000
24.95717 870.000
24.99773 910.000
25.03829 986.000
25.07885 1238.000
25.11941 1466.000
25.15997 1643.000
25.20053 1759.000
25.24109 1881.000
25.28165 1847.000
25.32221 1783.000
25.36277 1650.000
25.40333 1537.000
25.44389 1548.000
25.48445 1430.000
25.52501 1288.000
25.56557 1099.000
25.60613 939.000
25.64669 767.000
25.68725 787.000
25.72781 791.000
25.76837 844.000
25.80893 902.000
25.84950 1013.000
25.89006 1061.000
25.93062 1257.000
25.97118 1443.000
26.01174 1707.000
26.05230 1929.000
26.09286 1901.000
26.13342 1726.000
26.17398 1547.000
26.21454 1297.000
26.25510 1155.000
26.29566 1141.000
26.33622 1181.000
26.37678 1142.000
26.41734 1275.000
26.45790 1318.000
26.49846 1446.000
26.53902 1514.000
26.57958 1602.000
26.62014 1390.000
26.66070 1479.000
26.70126 1328.000
26.74182 1225.000
26.78238 1219.000
26.82294 1305.000
26.86350 1436.000
26.90406 1638.000
26.94462 1666.000
26.98518 1588.000
27.02574 1714.000
27.06630 1601.000
27.10686 1364.000
27.14742 1381.000
27.18798 1236.000
27.22854 1136.000
27.26910 1119.000
27.30966 1113.000
27.35022 1101.000
27.39078 1119.000
27.43134 1247.000
27.47190 1272.000
27.51246 1285.000
27.55302 1220.000
27.59358 964.000
27.63414 801.000
27.67470 674.000
27.71526 595.000
27.75583 605.000
27.79639 553.000
27.83695 521.000
27.87751 532.000
27.91807 538.000
27.95863 526.000
27.99919 570.000
28.03975 556.000
28.08031 594.000
28.12087 589.000
28.16143 605.000
28.20199 596.000
28.24255 637.000
28.28311 761.000
28.32367 785.000
28.36423 915.000
28.40479 1002.000
28.44535 1107.000
28.48591 1210.000
28.52647 1338.000
28.56703 1346.000
28.60759 1290.000
28.64815 1200.000
28.68871 1017.000
28.72927 921.000
28.76983 833.000
28.81039 825.000
28.85095 813.000
28.89151 828.000
28.93207 842.000
28.97263 871.000
29.01319 991.000
29.05375 1090.000
29.09431 1183.000
29.13487 1061.000
29.17543 960.000
29.21599 894.000
29.25655 854.000
29.29711 893.000
29.33767 929.000
29.37823 966.000
29.41879 898.000
29.45935 878.000
29.49991 839.000
29.54047 739.000
29.58103 862.000
29.62159 874.000
29.66216 889.000
29.70272 988.000
29.74328 1144.000
29.78384 1140.000
29.82440 1179.000
29.86496 1212.000
29.90552 1116.000
29.94608 1083.000
29.98664 1103.000
30.02720 1040.000
30.06776 987.000
30.10832 977.000
30.14888 874.000
30.18944 825.000
30.23000 737.000
30.27056 747.000
30.31112 790.000
30.35168 802.000
30.39224 812.000
30.43280 879.000
30.47336 858.000
30.51392 789.000
30.55448 655.000
30.59504 570.000
30.63560 529.000
30.67616 563.000
30.71672 521.000
30.75728 542.000
30.79784 536.000
30.83840 549.000
30.87896 594.000
30.91952 618.000
30.96008 592.000
31.00064 696.000
31.04120 741.000
31.08176 740.000
31.12232 811.000
31.16288 762.000
31.20344 716.000
31.24400 742.000
31.28456 657.000
31.32512 664.000
31.36568 608.000
31.40624 560.000
31.44680 567.000
31.48736 583.000
31.52792 592.000
31.56849 625.000
31.60905 710.000
31.64961 680.000
31.69017 753.000
31.73073 748.000
31.77129 729.000
31.81185 737.000
31.85241 746.000
31.89297 697.000
31.93353 737.000
31.97409 723.000
32.01465 773.000
32.05521 723.000
32.09577 703.000
32.13633 640.000
32.17689 637.000
32.21745 607.000
32.25801 614.000
32.29857 556.000
32.33913 598.000
32.37969 591.000
32.42025 596.000
32.46081 497.000
32.50137 525.000
32.54193 509.000
32.58249 470.000
32.62305 515.000
32.66361 529.000
32.70417 544.000
32.74473 580.000
32.78529 578.000
32.82585 554.000
32.86641 552.000
32.90697 574.000
32.94753 608.000
32.98809 661.000
33.02865 637.000
33.06921 673.000
33.10977 690.000
33.15033 647.000
33.19089 671.000
33.23145 710.000
33.27201 684.000
33.31257 675.000
33.35313 809.000
33.39369 813.000
33.43425 766.000
33.47482 632.000
33.51538 653.000
33.55594 561.000
33.59650 584.000
33.63706 548.000
33.67762 532.000
33.71818 534.000
33.75874 513.000
33.79930 528.000
33.83986 578.000
33.88042 585.000
33.92098 580.000
33.96154 588.000
34.00210 606.000
34.04266 630.000
34.08322 626.000
34.12378 595.000
34.16434 634.000
34.20490 679.000
34.24546 616.000
34.28602 657.000
34.32658 639.000
34.36714 684.000
34.40770 715.000
34.44826 855.000
34.48882 936.000
34.52938 1121.000
34.56994 1263.000
34.61050 1147.000
34.65106 1118.000
34.69162 1006.000
34.73218 930.000
34.77274 863.000
34.81330 800.000
34.85386 847.000
34.89442 913.000
34.93498 926.000
34.97554 959.000
35.01610 916.000
35.05666 843.000
35.09722 729.000
35.13778 746.000
35.17834 681.000
35.21890 610.000
35.25946 653.000
35.30002 602.000
35.34058 605.000
35.38115 567.000
35.42171 608.000
35.46227 652.000
35.50283 597.000
35.54339 630.000
35.58395 609.000
35.62451 639.000
35.66507 576.000
35.70563 558.000
35.74619 535.000
35.78675 573.000
35.82731 519.000
35.86787 487.000
35.90843 514.000
35.94899 492.000
35.98955 491.000
36.03011 512.000
36.07067 550.000
36.11123 541.000
36.15179 610.000
36.19235 646.000
36.23291 609.000
36.27347 684.000
36.31403 638.000
36.35459 657.000
36.39515 634.000
36.43571 650.000
36.47627 672.000
36.51683 704.000
36.55739 689.000
36.59795 752.000
36.63851 774.000
36.67907 832.000
36.71963 798.000
36.76019 827.000
36.80075 790.000
36.84131 758.000
36.88187 734.000
36.92243 815.000
36.96299 663.000
37.00355 656.000
37.04411 652.000
37.08467 679.000
37.12523 674.000
37.16579 676.000
37.20635 645.000
37.24691 644.000
37.28748 661.000
37.32804 608.000
37.36860 580.000
37.40916 548.000
37.44972 553.000
37.49028 557.000
37.53084 534.000
37.57140 541.000
37.61196 553.000
37.65252 555.000
37.69308 536.000
37.73364 589.000
37.77420 609.000
37.81476 646.000
37.85532 645.000
37.89588 660.000
37.93644 699.000
37.97700 705.000
38.01756 712.000
38.05812 681.000
38.09868 704.000
38.13924 666.000
38.17980 563.000
38.22036 533.000
38.26092 508.000
38.30148 530.000
38.34204 587.000
38.38260 589.000
38.42316 618.000
38.46372 603.000
38.50428 615.000
38.54484 572.000
38.58540 604.000
38.62596 499.000
38.66652 536.000
38.70708 525.000
38.74764 513.000
38.78820 511.000
38.82876 483.000
38.86932 540.000
38.90988 522.000
38.95044 462.000
38.99100 513.000
39.03156 456.000
39.07212 562.000
39.11268 547.000
39.15324 526.000
39.19381 523.000
39.23437 529.000
39.27493 551.000
39.31549 543.000
39.35605 607.000
39.39661 589.000
39.43717 592.000
39.47773 614.000
39.51829 635.000
39.55885 659.000
39.59941 577.000
39.63997 715.000
39.68053 617.000
39.72109 632.000
39.76165 623.000
39.80221 588.000
39.84277 546.000
39.88333 561.000
39.92389 589.000
39.96445 589.000
40.00501 602.000
40.04557 643.000
40.08613 673.000
40.12669 744.000
40.16725 798.000
40.20781 763.000
40.24837 803.000
40.28893 798.000
40.32949 764.000
40.37005 730.000
40.41061 767.000
40.45117 757.000
40.49173 726.000
40.53229 665.000
40.57285 620.000
40.61341 590.000
40.65397 564.000
40.69453 567.000
40.73509 543.000
40.77565 533.000
40.81621 507.000
40.85677 505.000
40.89733 492.000
40.93789 521.000
40.97845 538.000
41.01901 577.000
41.05957 609.000
41.10014 548.000
41.14070 504.000
41.18126 577.000
41.22182 555.000
41.26238 580.000
41.30294 593.000
41.34350 621.000
41.38406 629.000
41.42462 656.000
41.46518 649.000
41.50574 628.000
41.54630 711.000
41.58686 721.000
41.62742 685.000
41.66798 700.000
41.70854 730.000
41.74910 755.000
41.78966 726.000
41.83022 722.000
41.87078 643.000
41.91134 580.000
41.95190 541.000
41.99246 508.000
42.03302 545.000
42.07358 518.000
42.11414 461.000
42.15470 477.000
42.19526 438.000
42.23582 488.000
42.27638 476.000
42.31694 495.000
42.35750 453.000
42.39806 458.000
42.43862 473.000
42.47918 502.000
42.51974 482.000
42.56030 437.000
42.60086 410.000
42.64142 466.000
42.68198 431.000
42.72254 447.000
42.76310 459.000
42.80366 448.000
42.84422 465.000
42.88478 478.000
42.92534 450.000
42.96590 502.000
43.00647 499.000
43.04703 464.000
43.08759 509.000
43.12815 517.000
43.16871 568.000
43.20927 591.000
43.24983 619.000
43.29039 603.000
43.33095 626.000
43.37151 627.000
43.41207 591.000
43.45263 601.000
43.49319 659.000
43.53375 607.000
43.57431 642.000
43.61487 601.000
43.65543 579.000
43.69599 652.000
43.73655 614.000
43.77711 616.000
43.81767 725.000
43.85823 672.000
43.89879 644.000
43.93935 680.000
43.97991 661.000
44.02047 653.000
44.06103 631.000
44.10159 662.000
44.14215 606.000
44.18271 588.000
44.22327 587.000
44.26383 628.000
44.30439 487.000
44.34495 558.000
44.38551 529.000
44.42607 508.000
44.46663 570.000
44.50719 554.000
44.54775 517.000
44.58831 522.000
44.62887 527.000
44.66943 529.000
44.70999 534.000
44.75055 536.000
44.79111 551.000
44.83167 532.000
44.87223 538.000
44.91280 588.000
44.95336 543.000
44.99392 566.000
45.03448 561.000
45.07504 570.000
45.11560 503.000
45.15616 480.000
45.19672 491.000
45.23728 507.000
45.27784 478.000
45.31840 458.000
45.35896 528.000
45.39952 485.000
45.44008 466.000
45.48064 518.000
45.52120 514.000
45.56176 503.000
45.60232 578.000
45.64288 547.000
45.68344 480.000
45.72400 504.000
45.76456 512.000
45.80512 532.000
45.84568 545.000
45.88624 504.000
45.92680 476.000
45.96736 490.000
46.00792 489.000
46.04848 478.000
46.08904 514.000
46.12960 509.000
46.17016 496.000
46.21072 484.000
46.25128 550.000
46.29184 553.000
46.33240 551.000
46.37296 503.000
46.41352 542.000
46.45408 543.000
46.49464 560.000
46.53520 563.000
46.57576 505.000
46.61632 587.000
46.65688 533.000
46.69744 510.000
46.73800 567.000
46.77856 550.000
46.81913 470.000
46.85969 523.000
46.90025 513.000
46.94081 489.000
46.98137 485.000
47.02193 487.000
47.06249 491.000
47.10305 515.000
47.14361 513.000
47.18417 495.000
47.22473 502.000
47.26529 523.000
47.30585 582.000
47.34641 575.000
47.38697 605.000
47.42753 610.000
47.46809 592.000
47.50865 585.000
47.54921 566.000
47.58977 525.000
47.63033 544.000
47.67089 533.000
47.71145 521.000
47.75201 504.000
47.79257 554.000
47.83313 517.000
47.87369 515.000
47.91425 462.000
47.95481 500.000
47.99537 504.000
48.03593 496.000
48.07649 488.000
48.11705 479.000
48.15761 469.000
48.19817 477.000
48.23873 423.000
48.27929 410.000
48.31985 469.000
48.36041 452.000
48.40097 464.000
48.44153 434.000
48.48209 460.000
48.52265 476.000
48.56321 456.000
48.60377 457.000
48.64433 471.000
48.68489 431.000
48.72546 424.000
48.76602 420.000
48.80658 454.000
48.84714 429.000
48.88770 460.000
48.92826 382.000
48.96882 396.000
49.00938 405.000
49.04994 426.000
49.09050 453.000
49.13106 421.000
49.17162 423.000
49.21218 515.000
49.25274 464.000
49.29330 504.000
49.33386 427.000
49.37442 421.000
49.41498 452.000
49.45554 486.000
49.49610 424.000
49.53666 417.000
49.57722 434.000
49.61778 437.000
49.65834 439.000
49.69890 434.000
49.73946 475.000
49.78002 429.000
49.82058 445.000
49.86114 443.000
49.90170 460.000
49.94226 470.000
49.98282 442.000
50.02338 465.000
50.06394 463.000
50.10450 411.000
50.14506 468.000
50.18562 453.000
50.22618 506.000
50.26674 507.000
50.30730 479.000
50.34786 527.000
50.38842 522.000
50.42898 534.000
50.46954 510.000
50.51010 518.000
50.55066 517.000
50.59122 461.000
50.63179 438.000
50.67235 480.000
50.71291 446.000
50.75347 471.000
50.79403 431.000
50.83459 459.000
50.87515 443.000
50.91571 467.000
50.95627 425.000
50.99683 438.000