File: Task01/nick/files/ESI_material_XRD/kinetics/crystal_size_analysis/20ul IPA/2045_RVR_20ul_IPA_15m.xy
5.00155 904.000
5.04211 911.000
5.08267 854.000
5.12323 916.000
5.16379 807.000
5.20435 856.000
5.24491 806.000
5.28547 834.000
5.32603 770.000
5.36659 741.000
5.40715 724.000
5.44771 742.000
5.48827 698.000
5.52883 746.000
5.56939 662.000
5.60995 691.000
5.65051 684.000
5.69107 676.000
5.73163 695.000
5.77219 674.000
5.81275 642.000
5.85331 586.000
5.89387 592.000
5.93443 558.000
5.97499 615.000
6.01555 578.000
6.05611 568.000
6.09667 568.000
6.13723 563.000
6.17779 569.000
6.21835 626.000
6.25891 629.000
6.29947 637.000
6.34003 643.000
6.38059 717.000
6.42115 740.000
6.46171 725.000
6.50227 724.000
6.54283 778.000
6.58339 995.000
6.62395 1162.000
6.66451 1712.000
6.70507 2559.000
6.74564 3427.000
6.78620 4240.000
6.82676 4183.000
6.86732 3100.000
6.90788 1762.000
6.94844 1014.000
6.98900 748.000
7.02956 620.000
7.07012 621.000
7.11068 545.000
7.15124 496.000
7.19180 529.000
7.23236 548.000
7.27292 486.000
7.31348 485.000
7.35404 467.000
7.39460 464.000
7.43516 510.000
7.47572 491.000
7.51628 458.000
7.55684 465.000
7.59740 510.000
7.63796 439.000
7.67852 486.000
7.71908 478.000
7.75964 502.000
7.80020 466.000
7.84076 479.000
7.88132 483.000
7.92188 503.000
7.96244 511.000
8.00300 545.000
8.04356 579.000
8.08412 660.000
8.12468 731.000
8.16524 963.000
8.20580 1270.000
8.24636 1743.000
8.28692 2590.000
8.32748 3944.000
8.36804 4686.000
8.40860 3973.000
8.44916 2563.000
8.48972 1740.000
8.53028 1642.000
8.57084 1987.000
8.61140 2379.000
8.65197 2186.000
8.69253 1527.000
8.73309 1105.000
8.77365 852.000
8.81421 632.000
8.85477 652.000
8.89533 596.000
8.93589 559.000
8.97645 574.000
9.01701 537.000
9.05757 564.000
9.09813 496.000
9.13869 485.000
9.17925 552.000
9.21981 535.000
9.26037 629.000
9.30093 655.000
9.34149 818.000
9.38205 852.000
9.42261 1202.000
9.46317 1391.000
9.50373 1261.000
9.54429 1029.000
9.58485 755.000
9.62541 713.000
9.66597 756.000
9.70653 782.000
9.74709 1040.000
9.78765 1409.000
9.82821 1628.000
9.86877 1709.000
9.90933 1358.000
9.94989 911.000
9.99045 683.000
10.03101 617.000
10.07157 538.000
10.11213 533.000
10.15269 503.000
10.19325 488.000
10.23381 493.000
10.27437 503.000
10.31493 464.000
10.35549 538.000
10.39605 542.000
10.43661 643.000
10.47717 810.000
10.51773 948.000
10.55830 993.000
10.59886 886.000
10.63942 714.000
10.67998 570.000
10.72054 564.000
10.76110 580.000
10.80166 609.000
10.84222 817.000
10.88278 1073.000
10.92334 1153.000
10.96390 1181.000
11.00446 861.000
11.04502 706.000
11.08558 513.000
11.12614 516.000
11.16670 445.000
11.20726 443.000
11.24782 444.000
11.28838 398.000
11.32894 380.000
11.36950 415.000
11.41006 396.000
11.45062 392.000
11.49118 402.000
11.53174 405.000
11.57230 389.000
11.61286 410.000
11.65342 391.000
11.69398 392.000
11.73454 362.000
11.77510 411.000
11.81566 407.000
11.85622 402.000
11.89678 383.000
11.93734 378.000
11.97790 407.000
12.01846 424.000
12.05902 384.000
12.09958 424.000
12.14014 390.000
12.18070 418.000
12.22126 405.000
12.26182 412.000
12.30238 460.000
12.34294 428.000
12.38350 407.000
12.42406 420.000
12.46463 365.000
12.50519 402.000
12.54575 406.000
12.58631 399.000
12.62687 403.000
12.66743 402.000
12.70799 383.000
12.74855 404.000
12.78911 414.000
12.82967 472.000
12.87023 406.000
12.91079 463.000
12.95135 489.000
12.99191 549.000
13.03247 560.000
13.07303 538.000
13.11359 679.000
13.15415 847.000
13.19471 910.000
13.23527 895.000
13.27583 922.000
13.31639 939.000
13.35695 920.000
13.39751 924.000
13.43807 937.000
13.47863 1111.000
13.51919 1319.000
13.55975 1474.000
13.60031 1451.000
13.64087 1564.000
13.68143 1565.000
13.72199 1456.000
13.76255 1321.000
13.80311 1105.000
13.84367 875.000
13.88423 704.000
13.92479 633.000
13.96535 507.000
14.00591 477.000
14.04647 504.000
14.08703 474.000
14.12759 448.000
14.16815 458.000
14.20871 482.000
14.24927 466.000
14.28983 468.000
14.33039 473.000
14.37096 498.000
14.41152 568.000
14.45208 560.000
14.49264 573.000
14.53320 769.000
14.57376 952.000
14.61432 1293.000
14.65488 1653.000
14.69544 1570.000
14.73600 1221.000
14.77656 919.000
14.81712 912.000
14.85768 1084.000
14.89824 1298.000
14.93880 1150.000
14.97936 935.000
15.01992 664.000
15.06048 548.000
15.10104 519.000
15.14160 535.000
15.18216 504.000
15.22272 506.000
15.26328 495.000
15.30384 536.000
15.34440 503.000
15.38496 552.000
15.42552 539.000
15.46608 572.000
15.50664 623.000
15.54720 647.000
15.58776 677.000
15.62832 711.000
15.66888 694.000
15.70944 678.000
15.75000 658.000
15.79056 643.000
15.83112 701.000
15.87168 753.000
15.91224 889.000
15.95280 1079.000
15.99336 1327.000
16.03392 1648.000
16.07448 1670.000
16.11504 1507.000
16.15560 1279.000
16.19616 1249.000
16.23672 1300.000
16.27729 1595.000
16.31785 2193.000
16.35841 2637.000
16.39897 2620.000
16.43953 2360.000
16.48009 1911.000
16.52065 1727.000
16.56121 1973.000
16.60177 2246.000
16.64233 2383.000
16.68289 2401.000
16.72345 2327.000
16.76401 2339.000
16.80457 2339.000
16.84513 1986.000
16.88569 1558.000
16.92625 1594.000
16.96681 1718.000
17.00737 2040.000
17.04793 2752.000
17.08849 3314.000
17.12905 3266.000
17.16961 2795.000
17.21017 2313.000
17.25073 2137.000
17.29129 2251.000
17.33185 2368.000
17.37241 2079.000
17.41297 1560.000
17.45353 1322.000
17.49409 1187.000
17.53465 1245.000
17.57521 1308.000
17.61577 1677.000
17.65633 2209.000
17.69689 2911.000
17.73745 3607.000
17.77801 3806.000
17.81857 3009.000
17.85913 2260.000
17.89969 2035.000
17.94025 2349.000
17.98081 2929.000
18.02137 3700.000
18.06193 4439.000
18.10249 4956.000
18.14305 4484.000
18.18362 3508.000
18.22418 3224.000
18.26474 3217.000
18.30530 3444.000
18.34586 3574.000
18.38642 3526.000
18.42698 2785.000
18.46754 2227.000
18.50810 1820.000
18.54866 1784.000
18.58922 1961.000
18.62978 2343.000
18.67034 2582.000
18.71090 2716.000
18.75146 2507.000
18.79202 2346.000
18.83258 2193.000
18.87314 2375.000
18.91370 2076.000
18.95426 2030.000
18.99482 1910.000
19.03538 1784.000
19.07594 1612.000
19.11650 1369.000
19.15706 1233.000
19.19762 1255.000
19.23818 1282.000
19.27874 1307.000
19.31930 1481.000
19.35986 1893.000
19.40042 2271.000
19.44098 2937.000
19.48154 3483.000
19.52210 3777.000
19.56266 3210.000
19.60322 2673.000
19.64378 2358.000
19.68434 2285.000
19.72490 2493.000
19.76546 2753.000
19.80602 2926.000
19.84658 3184.000
19.88714 3599.000
19.92770 3938.000
19.96826 3809.000
20.00882 3587.000
20.04938 3358.000
20.08995 2912.000
20.13051 2679.000
20.17107 2768.000
20.21163 2760.000
20.25219 2868.000
20.29275 3231.000
20.33331 3594.000
20.37387 3440.000
20.41443 2719.000
20.45499 2078.000
20.49555 2031.000
20.53611 2202.000
20.57667 2525.000
20.61723 2567.000
20.65779 2253.000
20.69835 1803.000
20.73891 1422.000
20.77947 1239.000
20.82003 1146.000
20.86059 1197.000
20.90115 1158.000
20.94171 1200.000
20.98227 1168.000
21.02283 1218.000
21.06339 1412.000
21.10395 1388.000
21.14451 1695.000
21.18507 1955.000
21.22563 2316.000
21.26619 2898.000
21.30675 3535.000
21.34731 4429.000
21.38787 5582.000
21.42843 6424.000
21.46899 6910.000
21.50955 7454.000
21.55011 7577.000
21.59067 7557.000
21.63123 7133.000
21.67179 6482.000
21.71235 5219.000
21.75291 3848.000
21.79347 2547.000
21.83403 1941.000
21.87459 1560.000
21.91515 1456.000
21.95571 1315.000
21.99628 1259.000
22.03684 1397.000
22.07740 1397.000
22.11796 1533.000
22.15852 1597.000
22.19908 1494.000
22.23964 1282.000
22.28020 1192.000
22.32076 1113.000
22.36132 1190.000
22.40188 1292.000
22.44244 1334.000
22.48300 1397.000
22.52356 1494.000
22.56412 1401.000
22.60468 1298.000
22.64524 1277.000
22.68580 1374.000
22.72636 1326.000
22.76692 1440.000
22.80748 1378.000
22.84804 1376.000
22.88860 1414.000
22.92916 1348.000
22.96972 1317.000
23.01028 1254.000
23.05084 1227.000
23.09140 1090.000
23.13196 927.000
23.17252 954.000
23.21308 1009.000
23.25364 1108.000
23.29420 1257.000
23.33476 1481.000
23.37532 1811.000
23.41588 2070.000
23.45644 2283.000
23.49700 2481.000
23.53756 2487.000
23.57812 2329.000
23.61868 1985.000
23.65924 1752.000
23.69980 1542.000
23.74036 1402.000
23.78092 1474.000
23.82148 1400.000
23.86204 1356.000
23.90261 1285.000
23.94317 1227.000
23.98373 1249.000
24.02429 1192.000
24.06485 1135.000
24.10541 1198.000
24.14597 1230.000
24.18653 1327.000
24.22709 1268.000
24.26765 1293.000
24.30821 1549.000
24.34877 1697.000
24.38933 1917.000
24.42989 1927.000
24.47045 1644.000
24.51101 1334.000
24.55157 1178.000
24.59213 1107.000
24.63269 1091.000
24.67325 1219.000
24.71381 1307.000
24.75437 1374.000
24.79493 1324.000
24.83549 1124.000
24.87605 1061.000
24.91661 974.000
24.95717 1038.000
24.99773 1060.000
25.03829 1068.000
25.07885 1201.000
25.11941 1357.000
25.15997 1642.000
25.20053 1726.000
25.24109 1898.000
25.28165 2041.000
25.32221 1931.000
25.36277 1850.000
25.40333 1639.000
25.44389 1578.000
25.48445 1442.000
25.52501 1250.000
25.56557 1052.000
25.60613 969.000
25.64669 973.000
25.68725 1003.000
25.72781 942.000
25.76837 1064.000
25.80893 1071.000
25.84950 1081.000
25.89006 1136.000
25.93062 1301.000
25.97118 1496.000
26.01174 1654.000
26.05230 1849.000
26.09286 1800.000
26.13342 1795.000
26.17398 1495.000
26.21454 1409.000
26.25510 1366.000
26.29566 1292.000
26.33622 1302.000
26.37678 1363.000
26.41734 1311.000
26.45790 1297.000
26.49846 1388.000
26.53902 1399.000
26.57958 1347.000
26.62014 1315.000
26.66070 1166.000
26.70126 1139.000
26.74182 1131.000
26.78238 1098.000
26.82294 1104.000
26.86350 1329.000
26.90406 1342.000
26.94462 1429.000
26.98518 1466.000
27.02574 1298.000
27.06630 1259.000
27.10686 1122.000
27.14742 1090.000
27.18798 1044.000
27.22854 1002.000
27.26910 961.000
27.30966 982.000
27.35022 1066.000
27.39078 1079.000
27.43134 1026.000
27.47190 1127.000
27.51246 1015.000
27.55302 1000.000
27.59358 864.000
27.63414 790.000
27.67470 642.000
27.71526 605.000
27.75583 663.000
27.79639 638.000
27.83695 584.000
27.87751 604.000
27.91807 589.000
27.95863 581.000
27.99919 604.000
28.03975 630.000
28.08031 633.000
28.12087 599.000
28.16143 613.000
28.20199 656.000
28.24255 667.000
28.28311 777.000
28.32367 872.000
28.36423 933.000
28.40479 1077.000
28.44535 1197.000
28.48591 1294.000
28.52647 1430.000
28.56703 1409.000
28.60759 1367.000
28.64815 1265.000
28.68871 1162.000
28.72927 1057.000
28.76983 1008.000
28.81039 961.000
28.85095 910.000
28.89151 843.000
28.93207 824.000
28.97263 865.000
29.01319 903.000
29.05375 892.000
29.09431 890.000
29.13487 855.000
29.17543 826.000
29.21599 844.000
29.25655 775.000
29.29711 815.000
29.33767 825.000
29.37823 743.000
29.41879 767.000
29.45935 775.000
29.49991 749.000
29.54047 812.000
29.58103 915.000
29.62159 847.000
29.66216 1035.000
29.70272 1019.000
29.74328 1058.000
29.78384 1197.000
29.82440 1251.000
29.86496 1222.000
29.90552 1142.000
29.94608 1103.000
29.98664 1134.000
30.02720 1119.000
30.06776 1098.000
30.10832 1020.000
30.14888 936.000
30.18944 868.000
30.23000 821.000
30.27056 815.000
30.31112 746.000
30.35168 813.000
30.39224 837.000
30.43280 772.000
30.47336 736.000
30.51392 731.000
30.55448 617.000
30.59504 582.000
30.63560 564.000
30.67616 590.000
30.71672 611.000
30.75728 584.000
30.79784 571.000
30.83840 610.000
30.87896 645.000
30.91952 664.000
30.96008 651.000
31.00064 726.000
31.04120 660.000
31.08176 664.000
31.12232 806.000
31.16288 764.000
31.20344 769.000
31.24400 752.000
31.28456 760.000
31.32512 710.000
31.36568 801.000
31.40624 750.000
31.44680 690.000
31.48736 740.000
31.52792 749.000
31.56849 856.000
31.60905 885.000
31.64961 892.000
31.69017 891.000
31.73073 880.000
31.77129 820.000
31.81185 752.000
31.85241 775.000
31.89297 752.000
31.93353 794.000
31.97409 772.000
32.01465 785.000
32.05521 772.000
32.09577 699.000
32.13633 681.000
32.17689 719.000
32.21745 654.000
32.25801 654.000
32.29857 676.000
32.33913 630.000
32.37969 630.000
32.42025 634.000
32.46081 547.000
32.50137 567.000
32.54193 573.000
32.58249 569.000
32.62305 572.000
32.66361 520.000
32.70417 543.000
32.74473 530.000
32.78529 587.000
32.82585 596.000
32.86641 600.000
32.90697 587.000
32.94753 654.000
32.98809 647.000
33.02865 653.000
33.06921 779.000
33.10977 702.000
33.15033 700.000
33.19089 705.000
33.23145 715.000
33.27201 731.000
33.31257 692.000
33.35313 793.000
33.39369 789.000
33.43425 677.000
33.47482 606.000
33.51538 633.000
33.55594 607.000
33.59650 629.000
33.63706 613.000
33.67762 612.000
33.71818 625.000
33.75874 569.000
33.79930 568.000
33.83986 556.000
33.88042 577.000
33.92098 534.000
33.96154 580.000
34.00210 549.000
34.04266 602.000
34.08322 605.000
34.12378 590.000
34.16434 641.000
34.20490 607.000
34.24546 612.000
34.28602 620.000
34.32658 620.000
34.36714 665.000
34.40770 692.000
34.44826 736.000
34.48882 830.000
34.52938 869.000
34.56994 935.000
34.61050 922.000
34.65106 879.000
34.69162 877.000
34.73218 822.000
34.77274 776.000
34.81330 840.000
34.85386 829.000
34.89442 841.000
34.93498 867.000
34.97554 818.000
35.01610 879.000
35.05666 816.000
35.09722 778.000
35.13778 745.000
35.17834 689.000
35.21890 747.000
35.25946 704.000
35.30002 683.000
35.34058 658.000
35.38115 619.000
35.42171 631.000
35.46227 612.000
35.50283 565.000
35.54339 627.000
35.58395 562.000
35.62451 558.000
35.66507 572.000
35.70563 595.000
35.74619 517.000
35.78675 554.000
35.82731 495.000
35.86787 514.000
35.90843 571.000
35.94899 544.000
35.98955 616.000
36.03011 606.000
36.07067 647.000
36.11123 647.000
36.15179 739.000
36.19235 798.000
36.23291 798.000
36.27347 794.000
36.31403 762.000
36.35459 760.000
36.39515 702.000
36.43571 632.000
36.47627 651.000
36.51683 676.000
36.55739 680.000
36.59795 712.000
36.63851 714.000
36.67907 782.000
36.71963 709.000
36.76019 735.000
36.80075 771.000
36.84131 659.000
36.88187 697.000
36.92243 683.000
36.96299 635.000
37.00355 615.000
37.04411 667.000
37.08467 654.000
37.12523 596.000
37.16579 635.000
37.20635 637.000
37.24691 659.000
37.28748 613.000
37.32804 626.000
37.36860 578.000
37.40916 572.000
37.44972 586.000
37.49028 515.000
37.53084 558.000
37.57140 540.000
37.61196 565.000
37.65252 508.000
37.69308 542.000
37.73364 590.000
37.77420 610.000
37.81476 574.000
37.85532 599.000
37.89588 646.000
37.93644 660.000
37.97700 705.000
38.01756 673.000
38.05812 672.000
38.09868 700.000
38.13924 628.000
38.17980 576.000
38.22036 560.000
38.26092 576.000
38.30148 678.000
38.34204 625.000
38.38260 660.000
38.42316 604.000
38.46372 645.000
38.50428 598.000
38.54484 576.000
38.58540 576.000
38.62596 565.000
38.66652 569.000
38.70708 563.000
38.74764 565.000
38.78820 518.000
38.82876 554.000
38.86932 552.000
38.90988 581.000
38.95044 571.000
38.99100 574.000
39.03156 617.000
39.07212 622.000
39.11268 635.000
39.15324 540.000
39.19381 576.000
39.23437 559.000
39.27493 511.000
39.31549 601.000
39.35605 568.000
39.39661 577.000
39.43717 584.000
39.47773 605.000
39.51829 600.000
39.55885 649.000
39.59941 628.000
39.63997 670.000
39.68053 648.000
39.72109 594.000
39.76165 630.000
39.80221 545.000
39.84277 591.000
39.88333 631.000
39.92389 602.000
39.96445 617.000
40.00501 576.000
40.04557 642.000
40.08613 682.000
40.12669 645.000
40.16725 710.000
40.20781 710.000
40.24837 728.000
40.28893 775.000
40.32949 795.000
40.37005 732.000
40.41061 792.000
40.45117 788.000
40.49173 726.000
40.53229 788.000
40.57285 699.000
40.61341 684.000
40.65397 630.000
40.69453 580.000
40.73509 596.000
40.77565 559.000
40.81621 531.000
40.85677 542.000
40.89733 549.000
40.93789 573.000
40.97845 546.000
41.01901 574.000
41.05957 562.000
41.10014 556.000
41.14070 572.000
41.18126 614.000
41.22182 571.000
41.26238 574.000
41.30294 613.000
41.34350 565.000
41.38406 632.000
41.42462 617.000
41.46518 636.000
41.50574 599.000
41.54630 587.000
41.58686 599.000
41.62742 584.000
41.66798 640.000
41.70854 639.000
41.74910 657.000
41.78966 644.000
41.83022 614.000
41.87078 588.000
41.91134 546.000
41.95190 521.000
41.99246 509.000
42.03302 521.000
42.07358 451.000
42.11414 489.000
42.15470 462.000
42.19526 474.000
42.23582 481.000
42.27638 510.000
42.31694 501.000
42.35750 473.000
42.39806 489.000
42.43862 493.000
42.47918 503.000
42.51974 505.000
42.56030 517.000
42.60086 506.000
42.64142 487.000
42.68198 529.000
42.72254 502.000
42.76310 466.000
42.80366 501.000
42.84422 534.000
42.88478 466.000
42.92534 482.000
42.96590 479.000
43.00647 503.000
43.04703 531.000
43.08759 566.000
43.12815 530.000
43.16871 613.000
43.20927 563.000
43.24983 606.000
43.29039 574.000
43.33095 672.000
43.37151 617.000
43.41207 590.000
43.45263 573.000
43.49319 597.000
43.53375 636.000
43.57431 614.000
43.61487 624.000
43.65543 624.000
43.69599 649.000
43.73655 644.000
43.77711 635.000
43.81767 624.000
43.85823 677.000
43.89879 618.000
43.93935 654.000
43.97991 635.000
44.02047 587.000
44.06103 634.000
44.10159 589.000
44.14215 642.000
44.18271 628.000
44.22327 628.000
44.26383 575.000
44.30439 594.000
44.34495 543.000
44.38551 623.000
44.42607 586.000
44.46663 594.000
44.50719 580.000
44.54775 568.000
44.58831 560.000
44.62887 554.000
44.66943 567.000
44.70999 525.000
44.75055 548.000
44.79111 581.000
44.83167 583.000
44.87223 562.000
44.91280 565.000
44.95336 590.000
44.99392 534.000
45.03448 552.000
45.07504 577.000
45.11560 528.000
45.15616 532.000
45.19672 532.000
45.23728 490.000
45.27784 534.000
45.31840 533.000
45.35896 501.000
45.39952 517.000
45.44008 521.000
45.48064 548.000
45.52120 540.000
45.56176 576.000
45.60232 576.000
45.64288 560.000
45.68344 559.000
45.72400 541.000
45.76456 579.000
45.80512 536.000
45.84568 508.000
45.88624 549.000
45.92680 510.000
45.96736 535.000
46.00792 491.000
46.04848 536.000
46.08904 541.000
46.12960 527.000
46.17016 519.000
46.21072 544.000
46.25128 494.000
46.29184 549.000
46.33240 545.000
46.37296 590.000
46.41352 562.000
46.45408 578.000
46.49464 600.000
46.53520 594.000
46.57576 583.000
46.61632 553.000
46.65688 587.000
46.69744 593.000
46.73800 543.000
46.77856 532.000
46.81913 522.000
46.85969 481.000
46.90025 474.000
46.94081 516.000
46.98137 545.000
47.02193 513.000
47.06249 514.000
47.10305 517.000
47.14361 514.000
47.18417 571.000
47.22473 580.000
47.26529 539.000
47.30585 571.000
47.34641 542.000
47.38697 609.000
47.42753 592.000
47.46809 539.000
47.50865 519.000
47.54921 565.000
47.58977 565.000
47.63033 544.000
47.67089 516.000
47.71145 561.000
47.75201 518.000
47.79257 517.000
47.83313 491.000
47.87369 538.000
47.91425 500.000
47.95481 525.000
47.99537 515.000
48.03593 526.000
48.07649 467.000
48.11705 446.000
48.15761 501.000
48.19817 496.000
48.23873 461.000
48.27929 442.000
48.31985 511.000
48.36041 459.000
48.40097 495.000
48.44153 486.000
48.48209 440.000
48.52265 475.000
48.56321 506.000
48.60377 507.000
48.64433 485.000
48.68489 440.000
48.72546 464.000
48.76602 447.000
48.80658 415.000
48.84714 459.000
48.88770 485.000
48.92826 427.000
48.96882 477.000
49.00938 458.000
49.04994 467.000
49.09050 497.000
49.13106 516.000
49.17162 486.000
49.21218 480.000
49.25274 468.000
49.29330 463.000
49.33386 458.000
49.37442 467.000
49.41498 443.000
49.45554 504.000
49.49610 475.000
49.53666 454.000
49.57722 423.000
49.61778 448.000
49.65834 449.000
49.69890 439.000
49.73946 458.000
49.78002 460.000
49.82058 428.000
49.86114 441.000
49.90170 452.000
49.94226 464.000
49.98282 432.000
50.02338 454.000
50.06394 470.000
50.10450 479.000
50.14506 451.000
50.18562 466.000
50.22618 448.000
50.26674 460.000
50.30730 459.000
50.34786 486.000
50.38842 465.000
50.42898 499.000
50.46954 488.000
50.51010 490.000
50.55066 501.000
50.59122 508.000
50.63179 479.000
50.67235 452.000
50.71291 463.000
50.75347 500.000
50.79403 490.000
50.83459 428.000
50.87515 447.000
50.91571 444.000
50.95627 465.000
50.99683 439.000