File: Task01/nick/files/ESI_material_XRD/kinetics/crystal_size_analysis/20ul IPA/RVR_IPA_20uL.xy
4.00155 2156.000
4.04211 2145.000
4.08267 1965.000
4.12323 1844.000
4.16379 1834.000
4.20435 1670.000
4.24491 1708.000
4.28547 1569.000
4.32603 1545.000
4.36659 1529.000
4.40715 1313.000
4.44771 1304.000
4.48827 1320.000
4.52883 1300.000
4.56939 1170.000
4.60995 1149.000
4.65051 1104.000
4.69107 1128.000
4.73163 1039.000
4.77219 1059.000
4.81275 1055.000
4.85331 968.000
4.89387 948.000
4.93443 866.000
4.97499 922.000
5.01555 906.000
5.05611 902.000
5.09667 835.000
5.13723 876.000
5.17779 783.000
5.21835 827.000
5.25891 836.000
5.29947 800.000
5.34003 728.000
5.38059 760.000
5.42115 773.000
5.46171 683.000
5.50227 720.000
5.54283 668.000
5.58339 646.000
5.62395 646.000
5.66451 636.000
5.70507 566.000
5.74564 594.000
5.78620 657.000
5.82676 601.000
5.86732 591.000
5.90788 579.000
5.94844 537.000
5.98900 555.000
6.02956 573.000
6.07012 540.000
6.11068 544.000
6.15124 529.000
6.19180 605.000
6.23236 525.000
6.27292 530.000
6.31348 556.000
6.35404 686.000
6.39460 616.000
6.43516 644.000
6.47572 691.000
6.51628 612.000
6.55684 721.000
6.59740 821.000
6.63796 1038.000
6.67852 1435.000
6.71908 2019.000
6.75964 2864.000
6.80020 3728.000
6.84076 3766.000
6.88132 3101.000
6.92188 1899.000
6.96244 1022.000
7.00300 670.000
7.04356 582.000
7.08412 500.000
7.12468 523.000
7.16524 449.000
7.20580 433.000
7.24636 499.000
7.28692 452.000
7.32748 434.000
7.36804 423.000
7.40860 410.000
7.44916 391.000
7.48972 419.000
7.53028 428.000
7.57084 392.000
7.61140 429.000
7.65197 415.000
7.69253 396.000
7.73309 410.000
7.77365 383.000
7.81421 437.000
7.85477 446.000
7.89533 427.000
7.93589 427.000
7.97645 424.000
8.01701 474.000
8.05757 527.000
8.09813 614.000
8.13869 650.000
8.17925 843.000
8.21981 1056.000
8.26037 1460.000
8.30093 2243.000
8.34149 3309.000
8.38205 4296.000
8.42261 3958.000
8.46317 2640.000
8.50373 1612.000
8.54429 1422.000
8.58485 1752.000
8.62541 2232.000
8.66597 2355.000
8.70653 1652.000
8.74709 909.000
8.78765 685.000
8.82821 546.000
8.86877 477.000
8.90933 500.000
8.94989 486.000
8.99045 443.000
9.03101 409.000
9.07157 445.000
9.11213 450.000
9.15269 452.000
9.19325 438.000
9.23381 409.000
9.27437 454.000
9.31493 455.000
9.35549 607.000
9.39605 755.000
9.43661 1026.000
9.47717 1322.000
9.51773 1362.000
9.55830 1040.000
9.59886 645.000
9.63942 521.000
9.67998 562.000
9.72054 653.000
9.76110 847.000
9.80166 1185.000
9.84222 1621.000
9.88278 1812.000
9.92334 1458.000
9.96390 835.000
10.00446 600.000
10.04502 501.000
10.08558 487.000
10.12614 467.000
10.16670 447.000
10.20726 396.000
10.24782 427.000
10.28838 391.000
10.32894 406.000
10.36950 470.000
10.41006 536.000
10.45062 511.000
10.49118 720.000
10.53174 847.000
10.57230 963.000
10.61286 943.000
10.65342 677.000
10.69398 534.000
10.73454 506.000
10.77510 502.000
10.81566 585.000
10.85622 679.000
10.89678 951.000
10.93734 1201.000
10.97790 1269.000
11.01846 959.000
11.05902 550.000
11.09958 473.000
11.14014 386.000
11.18070 396.000
11.22126 387.000
11.26182 375.000
11.30238 385.000
11.34294 390.000
11.38350 392.000
11.42406 355.000
11.46463 380.000
11.50519 359.000
11.54575 385.000
11.58631 401.000
11.62687 362.000
11.66743 384.000
11.70799 371.000
11.74855 361.000
11.78911 371.000
11.82967 355.000
11.87023 355.000
11.91079 346.000
11.95135 371.000
11.99191 381.000
12.03247 339.000
12.07303 374.000
12.11359 356.000
12.15415 385.000
12.19471 347.000
12.23527 364.000
12.27583 365.000
12.31639 360.000
12.35695 405.000
12.39751 404.000
12.43807 410.000
12.47863 375.000
12.51919 383.000
12.55975 349.000
12.60031 320.000
12.64087 387.000
12.68143 380.000
12.72199 352.000
12.76255 382.000
12.80311 413.000
12.84367 398.000
12.88423 371.000
12.92479 433.000
12.96535 473.000
13.00591 487.000
13.04647 533.000
13.08703 567.000
13.12759 610.000
13.16815 782.000
13.20871 867.000
13.24927 949.000
13.28983 940.000
13.33039 962.000
13.37096 981.000
13.41152 983.000
13.45208 921.000
13.49264 965.000
13.53320 1272.000
13.57376 1451.000
13.61432 1430.000
13.65488 1441.000
13.69544 1544.000
13.73600 1535.000
13.77656 1385.000
13.81712 1153.000
13.85768 1059.000
13.89824 732.000
13.93880 535.000
13.97936 463.000
14.01992 473.000
14.06048 447.000
14.10104 425.000
14.14160 410.000
14.18216 442.000
14.22272 421.000
14.26328 452.000
14.30384 396.000
14.34440 452.000
14.38496 432.000
14.42552 494.000
14.46608 542.000
14.50664 558.000
14.54720 694.000
14.58776 855.000
14.62832 1294.000
14.66888 1691.000
14.70944 1712.000
14.75000 1343.000
14.79056 974.000
14.83112 936.000
14.87168 1123.000
14.91224 1245.000
14.95280 1285.000
14.99336 1052.000
15.03392 749.000
15.07448 557.000
15.11504 507.000
15.15560 494.000
15.19616 494.000
15.23672 448.000
15.27729 449.000
15.31785 465.000
15.35841 443.000
15.39897 458.000
15.43953 483.000
15.48009 504.000
15.52065 556.000
15.56121 560.000
15.60177 654.000
15.64233 743.000
15.68289 661.000
15.72345 610.000
15.76401 603.000
15.80457 646.000
15.84513 577.000
15.88569 708.000
15.92625 724.000
15.96681 973.000
16.00737 1172.000
16.04793 1624.000
16.08849 1898.000
16.12905 1685.000
16.16961 1290.000
16.21017 1090.000
16.25073 1189.000
16.29129 1586.000
16.33185 2098.000
16.37241 2769.000
16.41297 2987.000
16.45353 2608.000
16.49409 2047.000
16.53465 1645.000
16.57521 1798.000
16.61577 2163.000
16.65633 2583.000
16.69689 2736.000
16.73745 2492.000
16.77801 2478.000
16.81857 2520.000
16.85913 2218.000
16.89969 1728.000
16.94025 1535.000
16.98081 1632.000
17.02137 2149.000
17.06193 2868.000
17.10249 3572.000
17.14305 3667.000
17.18362 3219.000
17.22418 2453.000
17.26474 2095.000
17.30530 2217.000
17.34586 2559.000
17.38642 2293.000
17.42698 1711.000
17.46754 1230.000
17.50810 1040.000
17.54866 995.000
17.58922 1157.000
17.62978 1383.000
17.67034 1707.000
17.71090 2552.000
17.75146 3444.000
17.79202 3932.000
17.83258 3400.000
17.87314 2425.000
17.91370 2020.000
17.95426 2310.000
17.99482 2783.000
18.03538 3861.000
18.07594 5056.000
18.11650 5733.000
18.15706 5229.000
18.19762 4050.000
18.23818 3110.000
18.27874 3045.000
18.31930 3396.000
18.35986 3661.000
18.40042 3828.000
18.44098 3285.000
18.48154 2369.000
18.52210 1729.000
18.56266 1669.000
18.60322 1915.000
18.64378 2340.000
18.68434 2787.000
18.72490 2851.000
18.76546 2713.000
18.80602 2368.000
18.84658 2234.000
18.88714 2299.000
18.92770 2219.000
18.96826 2272.000
19.00882 1930.000
19.04938 1838.000
19.08995 1673.000
19.13051 1373.000
19.17107 1138.000
19.21163 1118.000
19.25219 1194.000
19.29275 1314.000
19.33331 1448.000
19.37387 1760.000
19.41443 2226.000
19.45499 2998.000
19.49555 3727.000
19.53611 4155.000
19.57667 3851.000
19.61723 2861.000
19.65779 2374.000
19.69835 2219.000
19.73891 2361.000
19.77947 2782.000
19.82003 3053.000
19.86059 3202.000
19.90115 3659.000
19.94171 4071.000
19.98227 4187.000
20.02283 3951.000
20.06339 3782.000
20.10395 3201.000
20.14451 2899.000
20.18507 2730.000
20.22563 2848.000
20.26619 2971.000
20.30675 3345.000
20.34731 3790.000
20.38787 3747.000
20.42843 3227.000
20.46899 2246.000
20.50955 1879.000
20.55011 2019.000
20.59067 2277.000
20.63123 2564.000
20.67179 2602.000
20.71235 1944.000
20.75291 1418.000
20.79347 1212.000
20.83403 1086.000
20.87459 1148.000
20.91515 1242.000
20.95571 1151.000
20.99628 1121.000
21.03684 1282.000
21.07740 1290.000
21.11796 1365.000
21.15852 1670.000
21.19908 1914.000
21.23964 2329.000
21.28020 2953.000
21.32076 3637.000
21.36132 4743.000
21.40188 6068.000
21.44244 6940.000
21.48300 7920.000
21.52356 8435.000
21.56412 8532.000
21.60468 8490.000
21.64524 8486.000
21.68580 7675.000
21.72636 6501.000
21.76692 4645.000
21.80748 2742.000
21.84804 1974.000
21.88860 1594.000
21.92916 1400.000
21.96972 1270.000
22.01028 1333.000
22.05084 1300.000
22.09140 1348.000
22.13196 1519.000
22.17252 1697.000
22.21308 1615.000
22.25364 1626.000
22.29420 1278.000
22.33476 1102.000
22.37532 1088.000
22.41588 1179.000
22.45644 1327.000
22.49700 1445.000
22.53756 1457.000
22.57812 1475.000
22.61868 1370.000
22.65924 1315.000
22.69980 1335.000
22.74036 1487.000
22.78092 1456.000
22.82148 1390.000
22.86204 1401.000
22.90261 1386.000
22.94317 1328.000
22.98373 1352.000
23.02429 1359.000
23.06485 1372.000
23.10541 1221.000
23.14597 1033.000
23.18653 1001.000
23.22709 996.000
23.26765 1148.000
23.30821 1240.000
23.34877 1487.000
23.38933 1827.000
23.42989 2219.000
23.47045 2629.000
23.51101 2799.000
23.55157 2920.000
23.59213 2788.000
23.63269 2312.000
23.67325 1930.000
23.71381 1742.000
23.75437 1484.000
23.79493 1430.000
23.83549 1499.000
23.87605 1348.000
23.91661 1312.000
23.95717 1222.000
23.99773 1178.000
24.03829 1294.000
24.07885 1172.000
24.11941 1189.000
24.15997 1236.000
24.20053 1279.000
24.24109 1320.000
24.28165 1296.000
24.32221 1534.000
24.36277 1781.000
24.40333 2024.000
24.44389 2196.000
24.48445 1898.000
24.52501 1458.000
24.56557 1213.000
24.60613 1041.000
24.64669 1101.000
24.68725 1227.000
24.72781 1380.000
24.76837 1549.000
24.80893 1422.000
24.84950 1293.000
24.89006 1145.000
24.93062 1054.000
24.97118 962.000
25.01174 1019.000
25.05230 1106.000
25.09286 1176.000
25.13342 1442.000
25.17398 1592.000
25.21454 1869.000
25.25510 1966.000
25.29566 2165.000
25.33622 2189.000
25.37678 2040.000
25.41734 1898.000
25.45790 1730.000
25.49846 1555.000
25.53902 1320.000
25.57958 1143.000
25.62014 1017.000
25.66070 945.000
25.70126 957.000
25.74182 967.000
25.78238 1118.000
25.82294 1233.000
25.86350 1209.000
25.90406 1177.000
25.94462 1266.000
25.98518 1489.000
26.02574 1568.000
26.06630 1889.000
26.10686 1991.000
26.14742 2035.000
26.18798 1752.000
26.22854 1456.000
26.26910 1352.000
26.30966 1394.000
26.35022 1313.000
26.39078 1381.000
26.43134 1399.000
26.47190 1465.000
26.51246 1583.000
26.55302 1489.000
26.59358 1513.000
26.63414 1432.000
26.67470 1400.000
26.71526 1224.000
26.75583 1165.000
26.79639 1117.000
26.83695 1195.000
26.87751 1381.000
26.91807 1567.000
26.95863 1568.000
26.99919 1560.000
27.03975 1462.000
27.08031 1389.000
27.12087 1333.000
27.16143 1193.000
27.20199 1070.000
27.24255 1090.000
27.28311 1056.000
27.32367 1038.000
27.36423 1063.000
27.40479 1194.000
27.44535 1176.000
27.48591 1269.000
27.52647 1245.000
27.56703 1127.000
27.60759 959.000
27.64815 865.000
27.68871 756.000
27.72927 653.000
27.76983 595.000
27.81039 587.000
27.85095 594.000
27.89151 571.000
27.93207 602.000
27.97263 604.000
28.01319 640.000
28.05375 576.000
28.09431 613.000
28.13487 621.000
28.17543 624.000
28.21599 679.000
28.25655 741.000
28.29711 820.000
28.33767 854.000
28.37823 922.000
28.41879 1059.000
28.45935 1172.000
28.49991 1345.000
28.54047 1476.000
28.58103 1545.000
28.62159 1600.000
28.66216 1418.000
28.70272 1300.000
28.74328 1081.000
28.78384 1033.000
28.82440 1086.000
28.86496 1004.000
28.90552 879.000
28.94608 874.000
28.98664 924.000
29.02720 939.000
29.06776 959.000
29.10832 986.000
29.14888 1073.000
29.18944 990.000
29.23000 897.000
29.27056 871.000
29.31112 901.000
29.35168 910.000
29.39224 906.000
29.43280 864.000
29.47336 833.000
29.51392 861.000
29.55448 847.000
29.59504 914.000
29.63560 896.000
29.67616 995.000
29.71672 1032.000
29.75728 1194.000
29.79784 1249.000
29.83840 1264.000
29.87896 1269.000
29.91952 1244.000
29.96008 1248.000
30.00064 1132.000
30.04120 1138.000
30.08176 1147.000
30.12232 1078.000
30.16288 1021.000
30.20344 941.000
30.24400 840.000
30.28456 853.000
30.32512 900.000
30.36568 872.000
30.40624 832.000
30.44680 863.000
30.48736 841.000
30.52792 776.000
30.56849 685.000
30.60905 618.000
30.64961 646.000
30.69017 589.000
30.73073 588.000
30.77129 585.000
30.81185 586.000
30.85241 578.000
30.89297 599.000
30.93353 643.000
30.97409 699.000
31.01465 693.000
31.05521 756.000
31.09577 774.000
31.13633 804.000
31.17689 767.000
31.21745 832.000
31.25801 772.000
31.29857 805.000
31.33913 784.000
31.37969 708.000
31.42025 799.000
31.46081 777.000
31.50137 809.000
31.54193 841.000
31.58249 836.000
31.62305 921.000
31.66361 962.000
31.70417 994.000
31.74473 897.000
31.78529 880.000
31.82585 859.000
31.86641 777.000
31.90697 826.000
31.94753 792.000
31.98809 814.000
32.02865 885.000
32.06921 810.000
32.10977 822.000
32.15033 753.000
32.19089 770.000
32.23145 660.000
32.27201 596.000
32.31257 576.000
32.35313 608.000
32.39369 670.000
32.43425 675.000
32.47482 616.000
32.51538 598.000
32.55594 559.000
32.59650 552.000
32.63706 526.000
32.67762 549.000
32.71818 586.000
32.75874 584.000
32.79930 612.000
32.83986 592.000
32.88042 620.000
32.92098 628.000
32.96154 639.000
33.00210 678.000
33.04266 669.000
33.08322 719.000
33.12378 765.000
33.16434 702.000
33.20490 748.000
33.24546 756.000
33.28602 783.000
33.32658 764.000
33.36714 790.000
33.40770 741.000
33.44826 683.000
33.48882 713.000
33.52938 618.000
33.56994 646.000
33.61050 659.000
33.65106 643.000
33.69162 638.000
33.73218 636.000
33.77274 641.000
33.81330 596.000
33.85386 572.000
33.89442 609.000
33.93498 616.000
33.97554 651.000
34.01610 634.000
34.05666 623.000
34.09722 644.000
34.13778 663.000
34.17834 671.000
34.21890 681.000
34.25946 702.000
34.30002 667.000
34.34058 709.000
34.38115 724.000
34.42171 716.000
34.46227 773.000
34.50283 846.000
34.54339 945.000
34.58395 1008.000
34.62451 1085.000
34.66507 961.000
34.70563 910.000
34.74619 862.000
34.78675 808.000
34.82731 819.000
34.86787 811.000
34.90843 892.000
34.94899 996.000
34.98955 1011.000
35.03011 985.000
35.07067 972.000
35.11123 831.000
35.15179 778.000
35.19235 779.000
35.23291 723.000
35.27347 778.000
35.31403 755.000
35.35459 712.000
35.39515 683.000
35.43571 628.000
35.47627 593.000
35.51683 633.000
35.55739 616.000
35.59795 609.000
35.63851 598.000
35.67907 605.000
35.71963 571.000
35.76019 563.000
35.80075 509.000
35.84131 507.000
35.88187 580.000
35.92243 578.000
35.96299 574.000
36.00355 611.000
36.04411 615.000
36.08467 656.000
36.12523 749.000
36.16579 798.000
36.20635 801.000
36.24691 838.000
36.28748 819.000
36.32804 829.000
36.36860 772.000
36.40916 734.000
36.44972 691.000
36.49028 753.000
36.53084 708.000
36.57140 706.000
36.61196 753.000
36.65252 746.000
36.69308 740.000
36.73364 780.000
36.77420 816.000
36.81476 862.000
36.85532 810.000
36.89588 738.000
36.93644 758.000
36.97700 700.000
37.01756 641.000
37.05812 673.000
37.09868 691.000
37.13924 687.000
37.17980 699.000
37.22036 716.000
37.26092 722.000
37.30148 643.000
37.34204 698.000
37.38260 686.000
37.42316 630.000
37.46372 584.000
37.50428 581.000
37.54484 567.000
37.58540 619.000
37.62596 541.000
37.66652 591.000
37.70708 593.000
37.74764 623.000
37.78820 602.000
37.82876 616.000
37.86932 698.000
37.90988 708.000
37.95044 673.000
37.99100 762.000
38.03156 787.000
38.07212 749.000
38.11268 708.000
38.15324 660.000
38.19381 646.000
38.23437 629.000
38.27493 632.000
38.31549 622.000
38.35605 638.000
38.39661 662.000
38.43717 652.000
38.47773 644.000
38.51829 654.000
38.55885 635.000
38.59941 629.000
38.63997 602.000
38.68053 566.000
38.72109 564.000
38.76165 535.000
38.80221 560.000
38.84277 553.000
38.88333 574.000
38.92389 608.000
38.96445 603.000
39.00501 610.000
39.04557 673.000
39.08613 650.000
39.12669 604.000
39.16725 582.000
39.20781 608.000
39.24837 579.000
39.28893 537.000
39.32949 624.000
39.37005 617.000
39.41061 617.000
39.45117 604.000
39.49173 678.000
39.53229 709.000
39.57285 676.000
39.61341 708.000
39.65397 680.000
39.69453 680.000
39.73509 678.000
39.77565 667.000
39.81621 652.000
39.85677 625.000
39.89733 660.000
39.93789 603.000
39.97845 659.000
39.99873 626.000