File: Task01/nick/files/ESI_material_XRD/kinetics/crystal_size_analysis/50ul IPA/2004_RVR_IPA_5min.xy
5.00155 802.000
5.04211 887.000
5.08267 827.000
5.12323 779.000
5.16379 770.000
5.20435 809.000
5.24491 760.000
5.28547 736.000
5.32603 723.000
5.36659 686.000
5.40715 693.000
5.44771 651.000
5.48827 621.000
5.52883 659.000
5.56939 667.000
5.60995 604.000
5.65051 623.000
5.69107 605.000
5.73163 574.000
5.77219 569.000
5.81275 544.000
5.85331 529.000
5.89387 535.000
5.93443 568.000
5.97499 497.000
6.01555 494.000
6.05611 525.000
6.09667 511.000
6.13723 509.000
6.17779 542.000
6.21835 548.000
6.25891 552.000
6.29947 612.000
6.34003 655.000
6.38059 735.000
6.42115 787.000
6.46171 721.000
6.50227 623.000
6.54283 494.000
6.58339 538.000
6.62395 544.000
6.66451 567.000
6.70507 775.000
6.74564 958.000
6.78620 1226.000
6.82676 1332.000
6.86732 1051.000
6.90788 716.000
6.94844 475.000
6.98900 420.000
7.02956 415.000
7.07012 411.000
7.11068 411.000
7.15124 376.000
7.19180 379.000
7.23236 366.000
7.27292 349.000
7.31348 353.000
7.35404 352.000
7.39460 336.000
7.43516 345.000
7.47572 353.000
7.51628 317.000
7.55684 353.000
7.59740 332.000
7.63796 331.000
7.67852 334.000
7.71908 358.000
7.75964 289.000
7.80020 337.000
7.84076 389.000
7.88132 371.000
7.92188 356.000
7.96244 309.000
8.00300 373.000
8.04356 346.000
8.08412 376.000
8.12468 400.000
8.16524 462.000
8.20580 511.000
8.24636 623.000
8.28692 812.000
8.32748 1175.000
8.36804 1539.000
8.40860 1716.000
8.44916 1361.000
8.48972 1379.000
8.53028 1917.000
8.57084 2826.000
8.61140 3819.000
8.65197 3871.000
8.69253 2764.000
8.73309 1595.000
8.77365 899.000
8.81421 604.000
8.85477 593.000
8.89533 553.000
8.93589 449.000
8.97645 441.000
9.01701 465.000
9.05757 401.000
9.09813 423.000
9.13869 403.000
9.17925 426.000
9.21981 446.000
9.26037 501.000
9.30093 643.000
9.34149 801.000
9.38205 1159.000
9.42261 1748.000
9.46317 2220.000
9.50373 2310.000
9.54429 1678.000
9.58485 1032.000
9.62541 750.000
9.66597 761.000
9.70653 870.000
9.74709 1207.000
9.78765 1866.000
9.82821 2583.000
9.86877 2762.000
9.90933 2048.000
9.94989 1157.000
9.99045 746.000
10.03101 568.000
10.07157 498.000
10.11213 448.000
10.15269 417.000
10.19325 384.000
10.23381 390.000
10.27437 398.000
10.31493 399.000
10.35549 397.000
10.39605 397.000
10.43661 463.000
10.47717 457.000
10.51773 489.000
10.55830 487.000
10.59886 462.000
10.63942 420.000
10.67998 404.000
10.72054 418.000
10.76110 445.000
10.80166 565.000
10.84222 833.000
10.88278 1183.000
10.92334 1677.000
10.96390 1632.000
11.00446 1133.000
11.04502 705.000
11.08558 491.000
11.12614 387.000
11.16670 362.000
11.20726 347.000
11.24782 350.000
11.28838 314.000
11.32894 303.000
11.36950 306.000
11.41006 321.000
11.45062 318.000
11.49118 322.000
11.53174 316.000
11.57230 311.000
11.61286 286.000
11.65342 328.000
11.69398 318.000
11.73454 308.000
11.77510 289.000
11.81566 316.000
11.85622 283.000
11.89678 301.000
11.93734 314.000
11.97790 279.000
12.01846 279.000
12.05902 299.000
12.09958 274.000
12.14014 281.000
12.18070 310.000
12.22126 313.000
12.26182 316.000
12.30238 348.000
12.34294 348.000
12.38350 387.000
12.42406 339.000
12.46463 331.000
12.50519 330.000
12.54575 297.000
12.58631 275.000
12.62687 304.000
12.66743 282.000
12.70799 322.000
12.74855 317.000
12.78911 350.000
12.82967 333.000
12.87023 358.000
12.91079 373.000
12.95135 447.000
12.99191 461.000
13.03247 441.000
13.07303 424.000
13.11359 458.000
13.15415 525.000
13.19471 672.000
13.23527 785.000
13.27583 746.000
13.31639 671.000
13.35695 610.000
13.39751 585.000
13.43807 569.000
13.47863 623.000
13.51919 739.000
13.55975 883.000
13.60031 1198.000
13.64087 1577.000
13.68143 2036.000
13.72199 2143.000
13.76255 2086.000
13.80311 1912.000
13.84367 1507.000
13.88423 944.000
13.92479 661.000
13.96535 481.000
14.00591 425.000
14.04647 406.000
14.08703 327.000
14.12759 416.000
14.16815 375.000
14.20871 367.000
14.24927 350.000
14.28983 331.000
14.33039 366.000
14.37096 336.000
14.41152 350.000
14.45208 353.000
14.49264 413.000
14.53320 393.000
14.57376 439.000
14.61432 591.000
14.65488 742.000
14.69544 715.000
14.73600 645.000
14.77656 638.000
14.81712 662.000
14.85768 804.000
14.89824 911.000
14.93880 796.000
14.97936 619.000
15.01992 478.000
15.06048 413.000
15.10104 363.000
15.14160 382.000
15.18216 355.000
15.22272 407.000
15.26328 366.000
15.30384 383.000
15.34440 381.000
15.38496 444.000
15.42552 435.000
15.46608 466.000
15.50664 533.000
15.54720 650.000
15.58776 803.000
15.62832 801.000
15.66888 779.000
15.70944 763.000
15.75000 641.000
15.79056 603.000
15.83112 745.000
15.87168 794.000
15.91224 1068.000
15.95280 1561.000
15.99336 2223.000
16.03392 2953.000
16.07448 3421.000
16.11504 2887.000
16.15560 1887.000
16.19616 1251.000
16.23672 950.000
16.27729 1074.000
16.31785 1359.000
16.35841 1600.000
16.39897 1821.000
16.43953 1641.000
16.48009 1528.000
16.52065 1496.000
16.56121 1783.000
16.60177 2466.000
16.64233 3006.000
16.68289 3107.000
16.72345 2436.000
16.76401 1771.000
16.80457 1566.000
16.84513 1212.000
16.88569 946.000
16.92625 832.000
16.96681 781.000
17.00737 875.000
17.04793 1049.000
17.08849 1331.000
17.12905 1458.000
17.16961 1507.000
17.21017 1737.000
17.25073 2317.000
17.29129 3103.000
17.33185 3748.000
17.37241 3368.000
17.41297 2227.000
17.45353 1411.000
17.49409 1022.000
17.53465 979.000
17.57521 1098.000
17.61577 1478.000
17.65633 2241.000
17.69689 3559.000
17.73745 4873.000
17.77801 5212.000
17.81857 3803.000
17.85913 2287.000
17.89969 1512.000
17.94025 1462.000
17.98081 1475.000
18.02137 1587.000
18.06193 1781.000
18.10249 2013.000
18.14305 2022.000
18.18362 2087.000
18.22418 2516.000
18.26474 3463.000
18.30530 4482.000
18.34586 5456.000
18.38642 5520.000
18.42698 4373.000
18.46754 2680.000
18.50810 1592.000
18.54866 1233.000
18.58922 1127.000
18.62978 1192.000
18.67034 1304.000
18.71090 1404.000
18.75146 1530.000
18.79202 1840.000
18.83258 2307.000
18.87314 2708.000
18.91370 2935.000
18.95426 2594.000
18.99482 2167.000
19.03538 1764.000
19.07594 1539.000
19.11650 1177.000
19.15706 1045.000
19.19762 986.000
19.23818 1105.000
19.27874 1237.000
19.31930 1508.000
19.35986 1677.000
19.40042 2108.000
19.44098 2745.000
19.48154 3206.000
19.52210 3334.000
19.56266 2706.000
19.60322 2196.000
19.64378 1924.000
19.68434 1987.000
19.72490 2326.000
19.76546 2723.000
19.80602 2767.000
19.84658 2652.000
19.88714 2674.000
19.92770 3142.000
19.96826 3830.000
20.00882 4566.000
20.04938 4408.000
20.08995 3673.000
20.13051 2631.000
20.17107 2134.000
20.21163 1926.000
20.25219 1984.000
20.29275 2116.000
20.33331 2200.000
20.37387 2252.000
20.41443 1875.000
20.45499 1585.000
20.49555 1802.000
20.53611 2183.000
20.57667 2926.000
20.61723 3529.000
20.65779 3110.000
20.69835 2281.000
20.73891 1482.000
20.77947 1181.000
20.82003 1136.000
20.86059 1200.000
20.90115 1175.000
20.94171 1160.000
20.98227 1045.000
21.02283 885.000
21.06339 956.000
21.10395 992.000
21.14451 1106.000
21.18507 1313.000
21.22563 1473.000
21.26619 1747.000
21.30675 2103.000
21.34731 2597.000
21.38787 3236.000
21.42843 3844.000
21.46899 4372.000
21.50955 4372.000
21.55011 4661.000
21.59067 5149.000
21.63123 6029.000
21.67179 6219.000
21.71235 5343.000
21.75291 3856.000
21.79347 2415.000
21.83403 1537.000
21.87459 1226.000
21.91515 1271.000
21.95571 1351.000
21.99628 1405.000
22.03684 1637.000
22.07740 1927.000
22.11796 2298.000
22.15852 2699.000
22.19908 2531.000
22.23964 2014.000
22.28020 1482.000
22.32076 1086.000
22.36132 950.000
22.40188 914.000
22.44244 975.000
22.48300 1058.000
22.52356 1140.000
22.56412 1258.000
22.60468 1238.000
22.64524 1302.000
22.68580 1516.000
22.72636 1563.000
22.76692 1591.000
22.80748 1443.000
22.84804 1234.000
22.88860 1072.000
22.92916 1015.000
22.96972 1046.000
23.01028 1112.000
23.05084 1079.000
23.09140 1022.000
23.13196 962.000
23.17252 801.000
23.21308 792.000
23.25364 877.000
23.29420 1057.000
23.33476 1241.000
23.37532 1584.000
23.41588 1797.000
23.45644 1930.000
23.49700 1796.000
23.53756 1542.000
23.57812 1495.000
23.61868 1348.000
23.65924 1336.000
23.69980 1243.000
23.74036 1136.000
23.78092 1087.000
23.82148 1093.000
23.86204 1161.000
23.90261 1302.000
23.94317 1360.000
23.98373 1314.000
24.02429 1324.000
24.06485 1444.000
24.10541 1477.000
24.14597 1466.000
24.18653 1482.000
24.22709 1316.000
24.26765 1195.000
24.30821 1075.000
24.34877 1168.000
24.38933 1291.000
24.42989 1385.000
24.47045 1330.000
24.51101 1104.000
24.55157 941.000
24.59213 947.000
24.63269 1045.000
24.67325 1234.000
24.71381 1388.000
24.75437 1453.000
24.79493 1409.000
24.83549 1197.000
24.87605 1106.000
24.91661 1031.000
24.95717 842.000
24.99773 818.000
25.03829 821.000
25.07885 954.000
25.11941 1094.000
25.15997 1379.000
25.20053 1734.000
25.24109 2066.000
25.28165 2518.000
25.32221 2665.000
25.36277 2494.000
25.40333 2176.000
25.44389 1871.000
25.48445 1526.000
25.52501 1267.000
25.56557 1097.000
25.60613 869.000
25.64669 914.000
25.68725 1111.000
25.72781 1212.000
25.76837 1379.000
25.80893 1453.000
25.84950 1241.000
25.89006 1113.000
25.93062 1141.000
25.97118 1151.000
26.01174 1393.000
26.05230 1640.000
26.09286 1766.000
26.13342 1800.000
26.17398 1544.000
26.21454 1327.000
26.25510 1321.000
26.29566 1300.000
26.33622 1385.000
26.37678 1424.000
26.41734 1391.000
26.45790 1356.000
26.49846 1452.000
26.53902 1240.000
26.57958 994.000
26.62014 965.000
26.66070 778.000
26.70126 818.000
26.74182 859.000
26.78238 865.000
26.82294 951.000
26.86350 1076.000
26.90406 1171.000
26.94462 1167.000
26.98518 1050.000
27.02574 861.000
27.06630 771.000
27.10686 738.000
27.14742 681.000
27.18798 674.000
27.22854 750.000
27.26910 672.000
27.30966 723.000
27.35022 769.000
27.39078 793.000
27.43134 791.000
27.47190 951.000
27.51246 916.000
27.55302 800.000
27.59358 715.000
27.63414 692.000
27.67470 547.000
27.71526 490.000
27.75583 539.000
27.79639 482.000
27.83695 519.000
27.87751 546.000
27.91807 507.000
27.95863 537.000
27.99919 530.000
28.03975 552.000
28.08031 525.000
28.12087 562.000
28.16143 525.000
28.20199 489.000
28.24255 539.000
28.28311 550.000
28.32367 649.000
28.36423 772.000
28.40479 862.000
28.44535 994.000
28.48591 1226.000
28.52647 1475.000
28.56703 1631.000
28.60759 1610.000
28.64815 1494.000
28.68871 1274.000
28.72927 1209.000
28.76983 1138.000
28.81039 933.000
28.85095 828.000
28.89151 668.000
28.93207 570.000
28.97263 599.000
29.01319 593.000
29.05375 631.000
29.09431 621.000
29.13487 676.000
29.17543 690.000
29.21599 698.000
29.25655 642.000
29.29711 632.000
29.33767 591.000
29.37823 600.000
29.41879 576.000
29.45935 557.000
29.49991 560.000
29.54047 623.000
29.58103 686.000
29.62159 745.000
29.66216 876.000
29.70272 1025.000
29.74328 1168.000
29.78384 1332.000
29.82440 1308.000
29.86496 1329.000
29.90552 1209.000
29.94608 1210.000
29.98664 1170.000
30.02720 1283.000
30.06776 1214.000
30.10832 1163.000
30.14888 1061.000
30.18944 950.000
30.23000 846.000
30.27056 840.000
30.31112 834.000
30.35168 787.000
30.39224 748.000
30.43280 720.000
30.47336 687.000
30.51392 539.000
30.55448 551.000
30.59504 514.000
30.63560 522.000
30.67616 521.000
30.71672 609.000
30.75728 592.000
30.79784 630.000
30.83840 558.000
30.87896 688.000
30.91952 681.000
30.96008 750.000
31.00064 654.000
31.04120 634.000
31.08176 652.000
31.12232 683.000
31.16288 683.000
31.20344 738.000
31.24400 788.000
31.28456 871.000
31.32512 907.000
31.36568 852.000
31.40624 850.000
31.44680 869.000
31.48736 905.000
31.52792 1063.000
31.56849 1155.000
31.60905 1276.000
31.64961 1348.000
31.69017 1300.000
31.73073 1105.000
31.77129 999.000
31.81185 948.000
31.85241 892.000
31.89297 815.000
31.93353 827.000
31.97409 830.000
32.01465 840.000
32.05521 858.000
32.09577 807.000
32.13633 719.000
32.17689 648.000
32.21745 599.000
32.25801 588.000
32.29857 574.000
32.33913 634.000
32.37969 616.000
32.42025 576.000
32.46081 573.000
32.50137 535.000
32.54193 560.000
32.58249 549.000
32.62305 517.000
32.66361 499.000
32.70417 525.000
32.74473 539.000
32.78529 494.000
32.82585 473.000
32.86641 531.000
32.90697 536.000
32.94753 520.000
32.98809 601.000
33.02865 652.000
33.06921 613.000
33.10977 645.000
33.15033 706.000
33.19089 727.000
33.23145 671.000
33.27201 574.000
33.31257 597.000
33.35313 579.000
33.39369 611.000
33.43425 579.000
33.47482 617.000
33.51538 629.000
33.55594 696.000
33.59650 685.000
33.63706 794.000
33.67762 735.000
33.71818 695.000
33.75874 626.000
33.79930 570.000
33.83986 516.000
33.88042 520.000
33.92098 573.000
33.96154 504.000
34.00210 496.000
34.04266 494.000
34.08322 469.000
34.12378 491.000
34.16434 512.000
34.20490 537.000
34.24546 502.000
34.28602 450.000
34.32658 494.000
34.36714 457.000
34.40770 454.000
34.44826 494.000
34.48882 483.000
34.52938 554.000
34.56994 615.000
34.61050 587.000
34.65106 602.000
34.69162 582.000
34.73218 600.000
34.77274 659.000
34.81330 657.000
34.85386 661.000
34.89442 743.000
34.93498 846.000
34.97554 841.000
35.01610 911.000
35.05666 883.000
35.09722 888.000
35.13778 908.000
35.17834 868.000
35.21890 876.000
35.25946 897.000
35.30002 870.000
35.34058 808.000
35.38115 697.000
35.42171 621.000
35.46227 519.000
35.50283 567.000
35.54339 558.000
35.58395 459.000
35.62451 479.000
35.66507 488.000
35.70563 433.000
35.74619 455.000
35.78675 497.000
35.82731 530.000
35.86787 525.000
35.90843 558.000
35.94899 611.000
35.98955 622.000
36.03011 703.000
36.07067 735.000
36.11123 808.000
36.15179 928.000
36.19235 931.000
36.23291 973.000
36.27347 940.000
36.31403 884.000
36.35459 817.000
36.39515 790.000
36.43571 696.000
36.47627 636.000
36.51683 606.000
36.55739 585.000
36.59795 524.000
36.63851 561.000
36.67907 604.000
36.71963 644.000
36.76019 606.000
36.80075 549.000
36.84131 543.000
36.88187 534.000
36.92243 534.000
36.96299 480.000
37.00355 463.000
37.04411 545.000
37.08467 536.000
37.12523 556.000
37.16579 653.000
37.20635 663.000
37.24691 652.000
37.28748 667.000
37.32804 671.000
37.36860 630.000
37.40916 521.000
37.44972 489.000
37.49028 503.000
37.53084 491.000
37.57140 453.000
37.61196 464.000
37.65252 433.000
37.69308 470.000
37.73364 470.000
37.77420 488.000
37.81476 538.000
37.85532 547.000
37.89588 666.000
37.93644 683.000
37.97700 641.000
38.01756 607.000
38.05812 612.000
38.09868 566.000
38.13924 531.000
38.17980 553.000
38.22036 579.000
38.26092 565.000
38.30148 654.000
38.34204 678.000
38.38260 639.000
38.42316 679.000
38.46372 655.000
38.50428 654.000
38.54484 590.000
38.58540 580.000
38.62596 567.000
38.66652 545.000
38.70708 534.000
38.74764 548.000
38.78820 586.000
38.82876 568.000
38.86932 634.000
38.90988 678.000
38.95044 770.000
38.99100 777.000
39.03156 777.000
39.07212 720.000
39.11268 725.000
39.15324 668.000
39.19381 601.000
39.23437 594.000
39.27493 553.000
39.31549 533.000
39.35605 491.000
39.39661 546.000
39.43717 599.000
39.47773 573.000
39.51829 624.000
39.55885 579.000
39.59941 575.000
39.63997 603.000
39.68053 584.000
39.72109 561.000
39.76165 542.000
39.80221 507.000
39.84277 563.000
39.88333 567.000
39.92389 550.000
39.96445 566.000
40.00501 561.000
40.04557 581.000
40.08613 607.000
40.12669 640.000
40.16725 621.000
40.20781 591.000
40.24837 618.000
40.28893 597.000
40.32949 651.000
40.37005 694.000
40.41061 787.000
40.45117 838.000
40.49173 945.000
40.53229 938.000
40.57285 891.000
40.61341 799.000
40.65397 790.000
40.69453 672.000
40.73509 698.000
40.77565 610.000
40.81621 523.000
40.85677 495.000
40.89733 500.000
40.93789 474.000
40.97845 521.000
41.01901 546.000
41.05957 498.000
41.10014 517.000
41.14070 508.000
41.18126 560.000
41.22182 585.000
41.26238 542.000
41.30294 539.000
41.34350 515.000
41.38406 527.000
41.42462 508.000
41.46518 468.000
41.50574 470.000
41.54630 471.000
41.58686 435.000
41.62742 523.000
41.66798 517.000
41.70854 538.000
41.74910 538.000
41.78966 538.000
41.83022 519.000
41.87078 500.000
41.91134 472.000
41.95190 450.000
41.99246 418.000
42.03302 425.000
42.07358 414.000
42.11414 425.000
42.15470 411.000
42.19526 464.000
42.23582 398.000
42.27638 435.000
42.31694 465.000
42.35750 446.000
42.39806 446.000
42.43862 472.000
42.47918 496.000
42.51974 491.000
42.56030 499.000
42.60086 539.000
42.64142 548.000
42.68198 484.000
42.72254 502.000
42.76310 505.000
42.80366 480.000
42.84422 487.000
42.88478 497.000
42.92534 460.000
42.96590 473.000
43.00647 528.000
43.04703 497.000
43.08759 549.000
43.12815 567.000
43.16871 609.000
43.20927 579.000
43.24983 535.000
43.29039 542.000
43.33095 562.000
43.37151 539.000
43.41207 544.000
43.45263 530.000
43.49319 552.000
43.53375 586.000
43.57431 585.000
43.61487 513.000
43.65543 596.000
43.69599 545.000
43.73655 547.000
43.77711 535.000
43.81767 596.000
43.85823 575.000
43.89879 584.000
43.93935 562.000
43.97991 558.000
44.02047 540.000
44.06103 522.000
44.10159 530.000
44.14215 557.000
44.18271 552.000
44.22327 587.000
44.26383 602.000
44.30439 594.000
44.34495 618.000
44.38551 653.000
44.42607 682.000
44.46663 745.000
44.50719 777.000
44.54775 668.000
44.58831 687.000
44.62887 636.000
44.66943 674.000
44.70999 643.000
44.75055 577.000
44.79111 610.000
44.83167 587.000
44.87223 578.000
44.91280 568.000
44.95336 543.000
44.99392 509.000
45.03448 565.000
45.07504 519.000
45.11560 526.000
45.15616 560.000
45.19672 477.000
45.23728 565.000
45.27784 564.000
45.31840 533.000
45.35896 562.000
45.39952 499.000
45.44008 567.000
45.48064 542.000
45.52120 567.000
45.56176 586.000
45.60232 519.000
45.64288 538.000
45.68344 542.000
45.72400 512.000
45.76456 513.000
45.80512 503.000
45.84568 471.000
45.88624 496.000
45.92680 453.000
45.96736 508.000
46.00792 523.000
46.04848 483.000
46.08904 517.000
46.12960 568.000
46.17016 546.000
46.21072 554.000
46.25128 570.000
46.29184 547.000
46.33240 567.000
46.37296 594.000
46.41352 577.000
46.45408 595.000
46.49464 570.000
46.53520 631.000
46.57576 638.000
46.61632 623.000
46.65688 590.000
46.69744 585.000
46.73800 497.000
46.77856 499.000
46.81913 491.000
46.85969 528.000
46.90025 492.000
46.94081 456.000
46.98137 457.000
47.02193 533.000
47.06249 474.000
47.10305 486.000
47.14361 483.000
47.18417 503.000
47.22473 497.000
47.26529 495.000
47.30585 492.000
47.34641 512.000
47.38697 517.000
47.42753 527.000
47.46809 541.000
47.50865 519.000
47.54921 532.000
47.58977 494.000
47.63033 506.000
47.67089 478.000
47.71145 445.000
47.75201 506.000
47.79257 453.000
47.83313 494.000
47.87369 515.000
47.91425 529.000
47.95481 522.000
47.99537 496.000
48.03593 522.000
48.07649 499.000
48.11705 498.000
48.15761 470.000
48.19817 458.000
48.23873 503.000
48.27929 493.000
48.31985 484.000
48.36041 500.000
48.40097 524.000
48.44153 502.000
48.48209 497.000
48.52265 463.000
48.56321 470.000
48.60377 440.000
48.64433 438.000
48.68489 459.000
48.72546 480.000
48.76602 463.000
48.80658 431.000
48.84714 406.000
48.88770 438.000
48.92826 467.000
48.96882 459.000
49.00938 516.000
49.04994 485.000
49.09050 450.000
49.13106 479.000
49.17162 497.000
49.21218 486.000
49.25274 492.000
49.29330 460.000
49.33386 483.000
49.37442 448.000
49.41498 427.000
49.45554 459.000
49.49610 399.000
49.53666 463.000
49.57722 426.000
49.61778 422.000
49.65834 445.000
49.69890 494.000
49.73946 416.000
49.78002 434.000
49.82058 444.000
49.86114 436.000
49.90170 423.000
49.94226 449.000
49.98282 444.000
50.00310 445.000