File: Task01/nick/files/ESI_material_XRD/kinetics/crystal_size_analysis/50ul IPA/2005_RVR_IPA_1min.xy
5.00155 808.000
5.04211 828.000
5.08267 748.000
5.12323 757.000
5.16379 754.000
5.20435 707.000
5.24491 714.000
5.28547 679.000
5.32603 718.000
5.36659 683.000
5.40715 639.000
5.44771 666.000
5.48827 643.000
5.52883 637.000
5.56939 621.000
5.60995 609.000
5.65051 621.000
5.69107 590.000
5.73163 555.000
5.77219 534.000
5.81275 597.000
5.85331 513.000
5.89387 508.000
5.93443 550.000
5.97499 484.000
6.01555 541.000
6.05611 524.000
6.09667 546.000
6.13723 494.000
6.17779 482.000
6.21835 486.000
6.25891 515.000
6.29947 503.000
6.34003 501.000
6.38059 492.000
6.42115 547.000
6.46171 585.000
6.50227 624.000
6.54283 698.000
6.58339 801.000
6.62395 1014.000
6.66451 1424.000
6.70507 2121.000
6.74564 3018.000
6.78620 4086.000
6.82676 5178.000
6.86732 5622.000
6.90788 5083.000
6.94844 3842.000
6.98900 2244.000
7.02956 1231.000
7.07012 747.000
7.11068 609.000
7.15124 577.000
7.19180 517.000
7.23236 528.000
7.27292 459.000
7.31348 472.000
7.35404 438.000
7.39460 469.000
7.43516 491.000
7.47572 442.000
7.51628 407.000
7.55684 460.000
7.59740 486.000
7.63796 433.000
7.67852 425.000
7.71908 439.000
7.75964 413.000
7.80020 429.000
7.84076 403.000
7.88132 444.000
7.92188 432.000
7.96244 417.000
8.00300 438.000
8.04356 490.000
8.08412 558.000
8.12468 594.000
8.16524 804.000
8.20580 1014.000
8.24636 1430.000
8.28692 2232.000
8.32748 3319.000
8.36804 4586.000
8.40860 5775.000
8.44916 5927.000
8.48972 5077.000
8.53028 3143.000
8.57084 1760.000
8.61140 1188.000
8.65197 1000.000
8.69253 942.000
8.73309 836.000
8.77365 666.000
8.81421 616.000
8.85477 537.000
8.89533 508.000
8.93589 485.000
8.97645 470.000
9.01701 428.000
9.05757 441.000
9.09813 417.000
9.13869 458.000
9.17925 456.000
9.21981 430.000
9.26037 378.000
9.30093 400.000
9.34149 405.000
9.38205 404.000
9.42261 428.000
9.46317 475.000
9.50373 572.000
9.54429 514.000
9.58485 485.000
9.62541 450.000
9.66597 426.000
9.70653 440.000
9.74709 419.000
9.78765 461.000
9.82821 498.000
9.86877 555.000
9.90933 527.000
9.94989 530.000
9.99045 511.000
10.03101 412.000
10.07157 434.000
10.11213 381.000
10.15269 408.000
10.19325 388.000
10.23381 409.000
10.27437 382.000
10.31493 400.000
10.35549 385.000
10.39605 433.000
10.43661 485.000
10.47717 600.000
10.51773 785.000
10.55830 1029.000
10.59886 1237.000
10.63942 1256.000
10.67998 1019.000
10.72054 786.000
10.76110 519.000
10.80166 483.000
10.84222 434.000
10.88278 445.000
10.92334 504.000
10.96390 514.000
11.00446 501.000
11.04502 509.000
11.08558 415.000
11.12614 392.000
11.16670 371.000
11.20726 362.000
11.24782 345.000
11.28838 358.000
11.32894 352.000
11.36950 346.000
11.41006 348.000
11.45062 371.000
11.49118 372.000
11.53174 345.000
11.57230 357.000
11.61286 341.000
11.65342 350.000
11.69398 346.000
11.73454 314.000
11.77510 342.000
11.81566 315.000
11.85622 329.000
11.89678 358.000
11.93734 367.000
11.97790 374.000
12.01846 347.000
12.05902 394.000
12.09958 333.000
12.14014 325.000
12.18070 334.000
12.22126 381.000
12.26182 359.000
12.30238 389.000
12.34294 335.000
12.38350 368.000
12.42406 347.000
12.46463 368.000
12.50519 363.000
12.54575 366.000
12.58631 345.000
12.62687 358.000
12.66743 345.000
12.70799 370.000
12.74855 322.000
12.78911 349.000
12.82967 368.000
12.87023 356.000
12.91079 355.000
12.95135 334.000
12.99191 387.000
13.03247 415.000
13.07303 429.000
13.11359 509.000
13.15415 583.000
13.19471 705.000
13.23527 871.000
13.27583 853.000
13.31639 982.000
13.35695 1038.000
13.39751 1100.000
13.43807 1161.000
13.47863 1228.000
13.51919 1301.000
13.55975 1546.000
13.60031 1656.000
13.64087 1626.000
13.68143 1439.000
13.72199 1192.000
13.76255 984.000
13.80311 752.000
13.84367 673.000
13.88423 536.000
13.92479 441.000
13.96535 447.000
14.00591 425.000
14.04647 407.000
14.08703 426.000
14.12759 435.000
14.16815 386.000
14.20871 403.000
14.24927 367.000
14.28983 390.000
14.33039 452.000
14.37096 407.000
14.41152 435.000
14.45208 467.000
14.49264 535.000
14.53320 599.000
14.57376 749.000
14.61432 1171.000
14.65488 1599.000
14.69544 2053.000
14.73600 2373.000
14.77656 2060.000
14.81712 1510.000
14.85768 1201.000
14.89824 1191.000
14.93880 1410.000
14.97936 1549.000
15.01992 1465.000
15.06048 1127.000
15.10104 812.000
15.14160 591.000
15.18216 518.000
15.22272 406.000
15.26328 420.000
15.30384 467.000
15.34440 413.000
15.38496 426.000
15.42552 382.000
15.46608 385.000
15.50664 441.000
15.54720 435.000
15.58776 482.000
15.62832 464.000
15.66888 489.000
15.70944 456.000
15.75000 442.000
15.79056 468.000
15.83112 462.000
15.87168 444.000
15.91224 461.000
15.95280 484.000
15.99336 588.000
16.03392 632.000
16.07448 688.000
16.11504 779.000
16.15560 877.000
16.19616 884.000
16.23672 969.000
16.27729 1317.000
16.31785 1887.000
16.35841 2694.000
16.39897 3482.000
16.43953 3922.000
16.48009 3532.000
16.52065 2766.000
16.56121 2190.000
16.60177 1855.000
16.64233 2044.000
16.68289 2353.000
16.72345 2577.000
16.76401 2799.000
16.80457 3306.000
16.84513 3381.000
16.88569 3355.000
16.92625 2812.000
16.96681 2082.000
17.00737 1958.000
17.04793 2515.000
17.08849 3618.000
17.12905 4833.000
17.16961 5277.000
17.21017 4459.000
17.25073 3079.000
17.29129 2037.000
17.33185 1491.000
17.37241 1160.000
17.41297 1020.000
17.45353 906.000
17.49409 786.000
17.53465 712.000
17.57521 766.000
17.61577 723.000
17.65633 731.000
17.69689 813.000
17.73745 925.000
17.77801 1104.000
17.81857 1220.000
17.85913 1292.000
17.89969 1272.000
17.94025 1458.000
17.98081 2012.000
18.02137 3081.000
18.06193 4786.000
18.10249 6523.000
18.14305 7950.000
18.18362 7602.000
18.22418 5665.000
18.26474 3859.000
18.30530 2452.000
18.34586 1777.000
18.38642 1551.000
18.42698 1408.000
18.46754 1382.000
18.50810 1255.000
18.54866 1271.000
18.58922 1522.000
18.62978 2154.000
18.67034 2928.000
18.71090 3606.000
18.75146 3907.000
18.79202 3635.000
18.83258 2949.000
18.87314 2265.000
18.91370 1693.000
18.95426 1546.000
18.99482 1452.000
19.03538 1584.000
19.07594 1692.000
19.11650 1846.000
19.15706 1654.000
19.19762 1355.000
19.23818 1171.000
19.27874 1071.000
19.31930 1035.000
19.35986 1231.000
19.40042 1550.000
19.44098 2063.000
19.48154 3018.000
19.52210 4125.000
19.56266 4836.000
19.60322 4758.000
19.64378 4114.000
19.68434 3200.000
19.72490 2281.000
19.76546 1953.000
19.80602 2045.000
19.84658 2468.000
19.88714 3089.000
19.92770 3960.000
19.96826 4532.000
20.00882 4654.000
20.04938 4130.000
20.08995 3314.000
20.13051 2833.000
20.17107 2773.000
20.21163 3158.000
20.25219 3476.000
20.29275 3773.000
20.33331 4202.000
20.37387 4683.000
20.41443 4646.000
20.45499 4179.000
20.49555 2960.000
20.53611 1982.000
20.57667 1532.000
20.61723 1432.000
20.65779 1409.000
20.69835 1386.000
20.73891 1151.000
20.77947 977.000
20.82003 884.000
20.86059 924.000
20.90115 1007.000
20.94171 965.000
20.98227 993.000
21.02283 1062.000
21.06339 1070.000
21.10395 1138.000
21.14451 1352.000
21.18507 1637.000
21.22563 1923.000
21.26619 2328.000
21.30675 2970.000
21.34731 3891.000
21.38787 5436.000
21.42843 7158.000
21.46899 9059.000
21.50955 10569.000
21.55011 11647.000
21.59067 12061.000
21.63123 12009.000
21.67179 11245.000
21.71235 9912.000
21.75291 8000.000
21.79347 5941.000
21.83403 3880.000
21.87459 2505.000
21.91515 1741.000
21.95571 1310.000
21.99628 1122.000
22.03684 1030.000
22.07740 1034.000
22.11796 968.000
22.15852 949.000
22.19908 987.000
22.23964 1047.000
22.28020 993.000
22.32076 1050.000
22.36132 1064.000
22.40188 1119.000
22.44244 1229.000
22.48300 1407.000
22.52356 1598.000
22.56412 1762.000
22.60468 1591.000
22.64524 1547.000
22.68580 1293.000
22.72636 1175.000
22.76692 1187.000
22.80748 1234.000
22.84804 1300.000
22.88860 1487.000
22.92916 1553.000
22.96972 1604.000
23.01028 1640.000
23.05084 1698.000
23.09140 1548.000
23.13196 1468.000
23.17252 1213.000
23.21308 1070.000
23.25364 1049.000
23.29420 1049.000
23.33476 1164.000
23.37532 1420.000
23.41588 1874.000
23.45644 2345.000
23.49700 3145.000
23.53756 3673.000
23.57812 4076.000
23.61868 3948.000
23.65924 3340.000
23.69980 2689.000
23.74036 2120.000
23.78092 1828.000
23.82148 1744.000
23.86204 1721.000
23.90261 1587.000
23.94317 1311.000
23.98373 1260.000
24.02429 1005.000
24.06485 905.000
24.10541 886.000
24.14597 951.000
24.18653 898.000
24.22709 976.000
24.26765 1114.000
24.30821 1322.000
24.34877 1626.000
24.38933 2071.000
24.42989 2517.000
24.47045 2938.000
24.51101 2770.000
24.55157 2233.000
24.59213 1668.000
24.63269 1345.000
24.67325 1096.000
24.71381 1252.000
24.75437 1424.000
24.79493 1512.000
24.83549 1436.000
24.87605 1196.000
24.91661 1024.000
24.95717 916.000
24.99773 882.000
25.03829 979.000
25.07885 1085.000
25.11941 1316.000
25.15997 1553.000
25.20053 1816.000
25.24109 1992.000
25.28165 2097.000
25.32221 2084.000
25.36277 2031.000
25.40333 1804.000
25.44389 1734.000
25.48445 1707.000
25.52501 1645.000
25.56557 1584.000
25.60613 1358.000
25.64669 1128.000
25.68725 888.000
25.72781 859.000
25.76837 857.000
25.80893 876.000
25.84950 929.000
25.89006 930.000
25.93062 1122.000
25.97118 1357.000
26.01174 1574.000
26.05230 1971.000
26.09286 2184.000
26.13342 2218.000
26.17398 2065.000
26.21454 1899.000
26.25510 1571.000
26.29566 1304.000
26.33622 1220.000
26.37678 1206.000
26.41734 1276.000
26.45790 1384.000
26.49846 1463.000
26.53902 1561.000
26.57958 1741.000
26.62014 1715.000
26.66070 1923.000
26.70126 1845.000
26.74182 1590.000
26.78238 1501.000
26.82294 1417.000
26.86350 1415.000
26.90406 1550.000
26.94462 1762.000
26.98518 1963.000
27.02574 2134.000
27.06630 2036.000
27.10686 1977.000
27.14742 1835.000
27.18798 1738.000
27.22854 1521.000
27.26910 1325.000
27.30966 1277.000
27.35022 1224.000
27.39078 1266.000
27.43134 1365.000
27.47190 1477.000
27.51246 1533.000
27.55302 1638.000
27.59358 1514.000
27.63414 1266.000
27.67470 1066.000
27.71526 833.000
27.75583 703.000
27.79639 666.000
27.83695 601.000
27.87751 610.000
27.91807 592.000
27.95863 615.000
27.99919 566.000
28.03975 629.000
28.08031 579.000
28.12087 617.000
28.16143 643.000
28.20199 648.000
28.24255 675.000
28.28311 753.000
28.32367 809.000
28.36423 938.000
28.40479 1093.000
28.44535 1150.000
28.48591 1233.000
28.52647 1384.000
28.56703 1475.000
28.60759 1505.000
28.64815 1452.000
28.68871 1384.000
28.72927 1117.000
28.76983 1049.000
28.81039 931.000
28.85095 878.000
28.89151 901.000
28.93207 910.000
28.97263 972.000
29.01319 1079.000
29.05375 1164.000
29.09431 1244.000
29.13487 1349.000
29.17543 1296.000
29.21599 1272.000
29.25655 1091.000
29.29711 1086.000
29.33767 1070.000
29.37823 1111.000
29.41879 1162.000
29.45935 1151.000
29.49991 1041.000
29.54047 920.000
29.58103 1028.000
29.62159 954.000
29.66216 955.000
29.70272 1017.000
29.74328 1077.000
29.78384 1212.000
29.82440 1289.000
29.86496 1304.000
29.90552 1250.000
29.94608 1308.000
29.98664 1297.000
30.02720 1205.000
30.06776 1199.000
30.10832 1238.000
30.14888 1119.000
30.18944 1082.000
30.23000 915.000
30.27056 847.000
30.31112 844.000
30.35168 864.000
30.39224 906.000
30.43280 1041.000
30.47336 1131.000
30.51392 1079.000
30.55448 985.000
30.59504 907.000
30.63560 746.000
30.67616 661.000
30.71672 566.000
30.75728 559.000
30.79784 583.000
30.83840 524.000
30.87896 548.000
30.91952 597.000
30.96008 599.000
31.00064 675.000
31.04120 697.000
31.08176 816.000
31.12232 841.000
31.16288 967.000
31.20344 933.000
31.24400 959.000
31.28456 843.000
31.32512 829.000
31.36568 770.000
31.40624 683.000
31.44680 618.000
31.48736 578.000
31.52792 609.000
31.56849 683.000
31.60905 659.000
31.64961 661.000
31.69017 744.000
31.73073 783.000
31.77129 791.000
31.81185 808.000
31.85241 780.000
31.89297 819.000
31.93353 821.000
31.97409 884.000
32.01465 856.000
32.05521 894.000
32.09577 866.000
32.13633 816.000
32.17689 806.000
32.21745 753.000
32.25801 710.000
32.29857 715.000
32.33913 693.000
32.37969 666.000
32.42025 701.000
32.46081 618.000
32.50137 596.000
32.54193 568.000
32.58249 541.000
32.62305 585.000
32.66361 611.000
32.70417 544.000
32.74473 638.000
32.78529 623.000
32.82585 704.000
32.86641 670.000
32.90697 713.000
32.94753 695.000
32.98809 747.000
33.02865 787.000
33.06921 786.000
33.10977 780.000
33.15033 777.000
33.19089 745.000
33.23145 730.000
33.27201 771.000
33.31257 808.000
33.35313 862.000
33.39369 918.000
33.43425 916.000
33.47482 855.000
33.51538 770.000
33.55594 740.000
33.59650 662.000
33.63706 631.000
33.67762 651.000
33.71818 647.000
33.75874 614.000
33.79930 598.000
33.83986 607.000
33.88042 583.000
33.92098 690.000
33.96154 688.000
34.00210 716.000
34.04266 732.000
34.08322 723.000
34.12378 762.000
34.16434 750.000
34.20490 782.000
34.24546 773.000
34.28602 759.000
34.32658 780.000
34.36714 702.000
34.40770 827.000
34.44826 804.000
34.48882 956.000
34.52938 1106.000
34.56994 1201.000
34.61050 1432.000
34.65106 1534.000
34.69162 1432.000
34.73218 1372.000
34.77274 1175.000
34.81330 1041.000
34.85386 980.000
34.89442 979.000
34.93498 1112.000
34.97554 1146.000
35.01610 1186.000
35.05666 1122.000
35.09722 1045.000
35.13778 898.000
35.17834 860.000
35.21890 812.000
35.25946 728.000
35.30002 737.000
35.34058 731.000
35.38115 717.000
35.42171 680.000
35.46227 692.000
35.50283 701.000
35.54339 662.000
35.58395 706.000
35.62451 781.000
35.66507 722.000
35.70563 689.000
35.74619 666.000
35.78675 641.000
35.82731 578.000
35.86787 518.000
35.90843 552.000
35.94899 527.000
35.98955 484.000
36.03011 600.000
36.07067 563.000
36.11123 609.000
36.15179 631.000
36.19235 672.000
36.23291 663.000
36.27347 732.000
36.31403 798.000
36.35459 749.000
36.39515 765.000
36.43571 764.000
36.47627 759.000
36.51683 756.000
36.55739 826.000
36.59795 811.000
36.63851 886.000
36.67907 956.000
36.71963 949.000
36.76019 970.000
36.80075 962.000
36.84131 1040.000
36.88187 1057.000
36.92243 996.000
36.96299 956.000
37.00355 927.000
37.04411 879.000
37.08467 849.000
37.12523 831.000
37.16579 783.000
37.20635 782.000
37.24691 746.000
37.28748 741.000
37.32804 686.000
37.36860 709.000
37.40916 687.000
37.44972 659.000
37.49028 630.000
37.53084 632.000
37.57140 605.000
37.61196 634.000
37.65252 626.000
37.69308 641.000
37.73364 684.000
37.77420 678.000
37.81476 697.000
37.85532 740.000
37.89588 742.000
37.93644 785.000
37.97700 775.000
38.01756 862.000
38.05812 894.000
38.09868 875.000
38.13924 846.000
38.17980 803.000
38.22036 754.000
38.26092 600.000
38.30148 609.000
38.34204 654.000
38.38260 610.000
38.42316 681.000
38.46372 691.000
38.50428 752.000
38.54484 690.000
38.58540 694.000
38.62596 656.000
38.66652 662.000
38.70708 661.000
38.74764 639.000
38.78820 596.000
38.82876 565.000
38.86932 585.000
38.90988 615.000
38.95044 503.000
38.99100 558.000
39.03156 550.000
39.07212 603.000
39.11268 579.000
39.15324 640.000
39.19381 622.000
39.23437 588.000
39.27493 612.000
39.31549 591.000
39.35605 618.000
39.39661 645.000
39.43717 646.000
39.47773 662.000
39.51829 719.000
39.55885 758.000
39.59941 780.000
39.63997 815.000
39.68053 872.000
39.72109 742.000
39.76165 851.000
39.80221 783.000
39.84277 716.000
39.88333 690.000
39.92389 690.000
39.96445 688.000
40.00501 649.000
40.04557 699.000
40.08613 767.000
40.12669 780.000
40.16725 828.000
40.20781 959.000
40.24837 923.000
40.28893 1044.000
40.32949 925.000
40.37005 973.000
40.41061 921.000
40.45117 977.000
40.49173 856.000
40.53229 844.000
40.57285 783.000
40.61341 783.000
40.65397 699.000
40.69453 631.000
40.73509 668.000
40.77565 602.000
40.81621 591.000
40.85677 618.000
40.89733 628.000
40.93789 556.000
40.97845 608.000
41.01901 624.000
41.05957 693.000
41.10014 670.000
41.14070 659.000
41.18126 630.000
41.22182 637.000
41.26238 631.000
41.30294 690.000
41.34350 694.000
41.38406 741.000
41.42462 736.000
41.46518 789.000
41.50574 763.000
41.54630 831.000
41.58686 765.000
41.62742 818.000
41.66798 795.000
41.70854 780.000
41.74910 886.000
41.78966 874.000
41.83022 927.000
41.87078 880.000
41.91134 832.000
41.95190 746.000
41.99246 679.000
42.03302 628.000
42.07358 592.000
42.11414 529.000
42.15470 553.000
42.19526 550.000
42.23582 613.000
42.27638 542.000
42.31694 560.000
42.35750 587.000
42.39806 561.000
42.43862 554.000
42.47918 572.000
42.51974 545.000
42.56030 541.000
42.60086 517.000
42.64142 546.000
42.68198 535.000
42.72254 490.000
42.76310 522.000
42.80366 567.000
42.84422 536.000
42.88478 545.000
42.92534 528.000
42.96590 509.000
43.00647 549.000
43.04703 591.000
43.08759 552.000
43.12815 584.000
43.16871 615.000
43.20927 683.000
43.24983 713.000
43.29039 721.000
43.33095 765.000
43.37151 773.000
43.41207 750.000
43.45263 738.000
43.49319 788.000
43.53375 796.000
43.57431 745.000
43.61487 813.000
43.65543 732.000
43.69599 722.000
43.73655 750.000
43.77711 758.000
43.81767 738.000
43.85823 756.000
43.89879 738.000
43.93935 768.000
43.97991 798.000
44.02047 817.000
44.06103 823.000
44.10159 749.000
44.14215 750.000
44.18271 719.000
44.22327 744.000
44.26383 715.000
44.30439 655.000
44.34495 676.000
44.38551 678.000
44.42607 619.000
44.46663 635.000
44.50719 584.000
44.54775 560.000
44.58831 595.000
44.62887 624.000
44.66943 567.000
44.70999 592.000
44.75055 612.000
44.79111 628.000
44.83167 620.000
44.87223 685.000
44.91280 655.000
44.95336 672.000
44.99392 636.000
45.03448 639.000
45.07504 623.000
45.11560 655.000
45.15616 650.000
45.19672 646.000
45.23728 615.000
45.27784 591.000
45.31840 579.000
45.35896 558.000
45.39952 536.000
45.44008 592.000
45.48064 568.000
45.52120 582.000
45.56176 591.000
45.60232 582.000
45.64288 603.000
45.68344 594.000
45.72400 657.000
45.76456 627.000
45.80512 649.000
45.84568 639.000
45.88624 629.000
45.92680 612.000
45.96736 635.000
46.00792 609.000
46.04848 547.000
46.08904 610.000
46.12960 553.000
46.17016 561.000
46.21072 560.000
46.25128 610.000
46.29184 587.000
46.33240 628.000
46.37296 624.000
46.41352 606.000
46.45408 642.000
46.49464 658.000
46.53520 693.000
46.57576 699.000
46.61632 706.000
46.65688 685.000
46.69744 641.000
46.73800 657.000
46.77856 636.000
46.81913 607.000
46.85969 628.000
46.90025 616.000
46.94081 629.000
46.98137 566.000
47.02193 565.000
47.06249 557.000
47.10305 587.000
47.14361 596.000
47.18417 573.000
47.22473 595.000
47.26529 637.000
47.30585 708.000
47.34641 645.000
47.38697 689.000
47.42753 686.000
47.46809 664.000
47.50865 678.000
47.54921 665.000
47.58977 646.000
47.63033 651.000
47.67089 663.000
47.71145 645.000
47.75201 567.000
47.79257 612.000
47.83313 564.000
47.87369 596.000
47.91425 640.000
47.95481 554.000
47.99537 623.000
48.03593 583.000
48.07649 567.000
48.11705 590.000
48.15761 564.000
48.19817 547.000
48.23873 538.000
48.27929 554.000
48.31985 508.000
48.36041 488.000
48.40097 528.000
48.44153 553.000
48.48209 480.000
48.52265 529.000
48.56321 560.000
48.60377 573.000
48.64433 524.000
48.68489 544.000
48.72546 535.000
48.76602 488.000
48.80658 511.000
48.84714 467.000
48.88770 527.000
48.92826 445.000
48.96882 488.000
49.00938 447.000
49.04994 490.000
49.09050 493.000
49.13106 481.000
49.17162 497.000
49.21218 539.000
49.25274 493.000
49.29330 496.000
49.33386 528.000
49.37442 504.000
49.41498 550.000
49.45554 547.000
49.49610 506.000
49.53666 503.000
49.57722 510.000
49.61778 541.000
49.65834 520.000
49.69890 550.000
49.73946 547.000
49.78002 561.000
49.82058 572.000
49.86114 483.000
49.90170 488.000
49.94226 512.000
49.98282 539.000
50.00310 508.000