File: Task01/nick/files/ESI_material_XRD/kinetics/crystal_size_analysis/50ul IPA/2006_RVR_IPA_30m.xy
5.00155 874.000
5.04211 851.000
5.08267 779.000
5.12323 824.000
5.16379 747.000
5.20435 773.000
5.24491 742.000
5.28547 760.000
5.32603 772.000
5.36659 700.000
5.40715 709.000
5.44771 667.000
5.48827 642.000
5.52883 692.000
5.56939 646.000
5.60995 606.000
5.65051 676.000
5.69107 612.000
5.73163 600.000
5.77219 635.000
5.81275 598.000
5.85331 608.000
5.89387 544.000
5.93443 586.000
5.97499 542.000
6.01555 538.000
6.05611 526.000
6.09667 538.000
6.13723 557.000
6.17779 563.000
6.21835 568.000
6.25891 641.000
6.29947 677.000
6.34003 713.000
6.38059 875.000
6.42115 1079.000
6.46171 1100.000
6.50227 864.000
6.54283 694.000
6.58339 569.000
6.62395 498.000
6.66451 513.000
6.70507 526.000
6.74564 560.000
6.78620 610.000
6.82676 668.000
6.86732 608.000
6.90788 515.000
6.94844 453.000
6.98900 448.000
7.02956 453.000
7.07012 411.000
7.11068 459.000
7.15124 418.000
7.19180 410.000
7.23236 411.000
7.27292 414.000
7.31348 392.000
7.35404 394.000
7.39460 376.000
7.43516 395.000
7.47572 470.000
7.51628 415.000
7.55684 452.000
7.59740 379.000
7.63796 423.000
7.67852 430.000
7.71908 434.000
7.75964 430.000
7.80020 422.000
7.84076 428.000
7.88132 452.000
7.92188 440.000
7.96244 426.000
8.00300 420.000
8.04356 433.000
8.08412 471.000
8.12468 476.000
8.16524 474.000
8.20580 490.000
8.24636 502.000
8.28692 618.000
8.32748 685.000
8.36804 798.000
8.40860 920.000
8.44916 1148.000
8.48972 1507.000
8.53028 2321.000
8.57084 3785.000
8.61140 5759.000
8.65197 7175.000
8.69253 6545.000
8.73309 3989.000
8.77365 1805.000
8.81421 1086.000
8.85477 837.000
8.89533 762.000
8.93589 648.000
8.97645 624.000
9.01701 585.000
9.05757 558.000
9.09813 525.000
9.13869 565.000
9.17925 560.000
9.21981 571.000
9.26037 721.000
9.30093 795.000
9.34149 1068.000
9.38205 1550.000
9.42261 2450.000
9.46317 3598.000
9.50373 4463.000
9.54429 3892.000
9.58485 2487.000
9.62541 1397.000
9.66597 1036.000
9.70653 1234.000
9.74709 1671.000
9.78765 2641.000
9.82821 4100.000
9.86877 5228.000
9.90933 4881.000
9.94989 2994.000
9.99045 1481.000
10.03101 955.000
10.07157 808.000
10.11213 728.000
10.15269 601.000
10.19325 526.000
10.23381 536.000
10.27437 539.000
10.31493 582.000
10.35549 637.000
10.39605 556.000
10.43661 649.000
10.47717 645.000
10.51773 573.000
10.55830 569.000
10.59886 547.000
10.63942 541.000
10.67998 519.000
10.72054 564.000
10.76110 646.000
10.80166 789.000
10.84222 1146.000
10.88278 1824.000
10.92334 2741.000
10.96390 3410.000
11.00446 2812.000
11.04502 1586.000
11.08558 914.000
11.12614 605.000
11.16670 534.000
11.20726 533.000
11.24782 515.000
11.28838 399.000
11.32894 446.000
11.36950 473.000
11.41006 435.000
11.45062 427.000
11.49118 440.000
11.53174 404.000
11.57230 397.000
11.61286 394.000
11.65342 421.000
11.69398 436.000
11.73454 409.000
11.77510 408.000
11.81566 439.000
11.85622 400.000
11.89678 427.000
11.93734 423.000
11.97790 358.000
12.01846 385.000
12.05902 384.000
12.09958 385.000
12.14014 436.000
12.18070 433.000
12.22126 405.000
12.26182 415.000
12.30238 438.000
12.34294 491.000
12.38350 503.000
12.42406 504.000
12.46463 443.000
12.50519 448.000
12.54575 400.000
12.58631 413.000
12.62687 361.000
12.66743 423.000
12.70799 389.000
12.74855 386.000
12.78911 467.000
12.82967 485.000
12.87023 460.000
12.91079 502.000
12.95135 590.000
12.99191 690.000
13.03247 633.000
13.07303 601.000
13.11359 583.000
13.15415 618.000
13.19471 773.000
13.23527 1051.000
13.27583 1183.000
13.31639 1147.000
13.35695 873.000
13.39751 693.000
13.43807 572.000
13.47863 664.000
13.51919 777.000
13.55975 965.000
13.60031 1283.000
13.64087 2035.000
13.68143 3025.000
13.72199 3494.000
13.76255 3561.000
13.80311 3402.000
13.84367 2940.000
13.88423 2202.000
13.92479 1227.000
13.96535 758.000
14.00591 647.000
14.04647 582.000
14.08703 572.000
14.12759 522.000
14.16815 468.000
14.20871 453.000
14.24927 460.000
14.28983 442.000
14.33039 459.000
14.37096 421.000
14.41152 499.000
14.45208 431.000
14.49264 489.000
14.53320 489.000
14.57376 506.000
14.61432 476.000
14.65488 561.000
14.69544 562.000
14.73600 561.000
14.77656 684.000
14.81712 762.000
14.85768 1030.000
14.89824 1177.000
14.93880 1061.000
14.97936 858.000
15.01992 629.000
15.06048 579.000
15.10104 538.000
15.14160 491.000
15.18216 489.000
15.22272 433.000
15.26328 493.000
15.30384 511.000
15.34440 488.000
15.38496 558.000
15.42552 506.000
15.46608 647.000
15.50664 658.000
15.54720 850.000
15.58776 1171.000
15.62832 1393.000
15.66888 1402.000
15.70944 1155.000
15.75000 1033.000
15.79056 974.000
15.83112 843.000
15.87168 938.000
15.91224 1133.000
15.95280 1561.000
15.99336 2337.000
16.03392 3858.000
16.07448 5189.000
16.11504 5397.000
16.15560 4036.000
16.19616 2140.000
16.23672 1403.000
16.27729 1146.000
16.31785 1204.000
16.35841 1368.000
16.39897 1768.000
16.43953 1920.000
16.48009 1893.000
16.52065 1706.000
16.56121 1914.000
16.60177 2541.000
16.64233 3855.000
16.68289 4734.000
16.72345 4209.000
16.76401 2846.000
16.80457 1684.000
16.84513 1187.000
16.88569 1042.000
16.92625 969.000
16.96681 893.000
17.00737 903.000
17.04793 972.000
17.08849 1047.000
17.12905 1305.000
17.16961 1554.000
17.21017 1999.000
17.25073 2801.000
17.29129 4309.000
17.33185 6127.000
17.37241 6568.000
17.41297 5018.000
17.45353 2942.000
17.49409 1780.000
17.53465 1438.000
17.57521 1584.000
17.61577 2124.000
17.65633 3120.000
17.69689 5071.000
17.73745 8005.000
17.77801 10015.000
17.81857 8837.000
17.85913 5230.000
17.89969 2871.000
17.94025 2180.000
17.98081 1928.000
18.02137 1807.000
18.06193 1597.000
18.10249 1656.000
18.14305 1833.000
18.18362 2217.000
18.22418 3162.000
18.26474 4653.000
18.30530 6496.000
18.34586 8637.000
18.38642 10125.000
18.42698 9471.000
18.46754 6358.000
18.50810 3504.000
18.54866 1982.000
18.58922 1539.000
18.62978 1339.000
18.67034 1380.000
18.71090 1399.000
18.75146 1620.000
18.79202 1990.000
18.83258 2837.000
18.87314 3988.000
18.91370 4867.000
18.95426 4717.000
18.99482 3679.000
19.03538 2856.000
19.07594 2284.000
19.11650 1733.000
19.15706 1381.000
19.19762 1300.000
19.23818 1365.000
19.27874 1516.000
19.31930 1797.000
19.35986 1987.000
19.40042 2375.000
19.44098 2941.000
19.48154 3835.000
19.52210 4364.000
19.56266 3881.000
19.60322 2928.000
19.64378 2283.000
19.68434 2469.000
19.72490 3214.000
19.76546 4200.000
19.80602 4344.000
19.84658 3990.000
19.88714 3194.000
19.92770 3222.000
19.96826 4147.000
20.00882 5775.000
20.04938 7185.000
20.08995 6859.000
20.13051 4898.000
20.17107 3213.000
20.21163 2408.000
20.25219 2144.000
20.29275 2396.000
20.33331 2682.000
20.37387 2934.000
20.41443 2595.000
20.45499 2204.000
20.49555 2383.000
20.53611 2947.000
20.57667 4156.000
20.61723 5544.000
20.65779 6112.000
20.69835 4967.000
20.73891 2881.000
20.77947 1860.000
20.82003 1532.000
20.86059 1534.000
20.90115 1657.000
20.94171 1706.000
20.98227 1669.000
21.02283 1393.000
21.06339 1343.000
21.10395 1209.000
21.14451 1207.000
21.18507 1290.000
21.22563 1610.000
21.26619 1845.000
21.30675 2135.000
21.34731 2355.000
21.38787 2898.000
21.42843 3826.000
21.46899 4534.000
21.50955 4719.000
21.55011 4408.000
21.59067 4902.000
21.63123 6260.000
21.67179 8113.000
21.71235 8661.000
21.75291 7040.000
21.79347 4313.000
21.83403 2553.000
21.87459 1757.000
21.91515 1644.000
21.95571 1671.000
21.99628 1712.000
22.03684 1850.000
22.07740 2081.000
22.11796 2507.000
22.15852 3275.000
22.19908 3687.000
22.23964 3665.000
22.28020 2594.000
22.32076 1767.000
22.36132 1337.000
22.40188 1125.000
22.44244 1092.000
22.48300 1233.000
22.52356 1377.000
22.56412 1447.000
22.60468 1538.000
22.64524 1689.000
22.68580 1937.000
22.72636 2110.000
22.76692 2368.000
22.80748 2260.000
22.84804 1686.000
22.88860 1315.000
22.92916 1108.000
22.96972 1040.000
23.01028 1135.000
23.05084 1264.000
23.09140 1321.000
23.13196 1269.000
23.17252 1136.000
23.21308 993.000
23.25364 997.000
23.29420 1119.000
23.33476 1347.000
23.37532 1668.000
23.41588 1963.000
23.45644 2379.000
23.49700 2203.000
23.53756 1727.000
23.57812 1458.000
23.61868 1336.000
23.65924 1372.000
23.69980 1556.000
23.74036 1581.000
23.78092 1392.000
23.82148 1267.000
23.86204 1280.000
23.90261 1559.000
23.94317 1709.000
23.98373 1914.000
24.02429 1894.000
24.06485 1892.000
24.10541 1954.000
24.14597 1969.000
24.18653 2085.000
24.22709 2072.000
24.26765 1812.000
24.30821 1375.000
24.34877 1295.000
24.38933 1313.000
24.42989 1448.000
24.47045 1484.000
24.51101 1337.000
24.55157 1124.000
24.59213 1036.000
24.63269 1192.000
24.67325 1423.000
24.71381 1743.000
24.75437 2003.000
24.79493 2097.000
24.83549 1893.000
24.87605 1762.000
24.91661 1496.000
24.95717 1232.000
24.99773 1098.000
25.03829 982.000
25.07885 985.000
25.11941 1084.000
25.15997 1341.000
25.20053 1580.000
25.24109 2096.000
25.28165 2698.000
25.32221 3530.000
25.36277 3916.000
25.40333 3697.000
25.44389 2934.000
25.48445 2432.000
25.52501 1825.000
25.56557 1433.000
25.60613 1115.000
25.64669 1077.000
25.68725 1130.000
25.72781 1346.000
25.76837 1699.000
25.80893 1818.000
25.84950 1922.000
25.89006 1719.000
25.93062 1435.000
25.97118 1385.000
26.01174 1514.000
26.05230 1794.000
26.09286 2308.000
26.13342 2502.000
26.17398 2541.000
26.21454 1989.000
26.25510 1718.000
26.29566 1793.000
26.33622 1823.000
26.37678 1787.000
26.41734 1739.000
26.45790 1717.000
26.49846 1728.000
26.53902 1730.000
26.57958 1539.000
26.62014 1113.000
26.66070 980.000
26.70126 890.000
26.74182 859.000
26.78238 915.000
26.82294 961.000
26.86350 1154.000
26.90406 1332.000
26.94462 1420.000
26.98518 1233.000
27.02574 1123.000
27.06630 835.000
27.10686 760.000
27.14742 697.000
27.18798 674.000
27.22854 691.000
27.26910 748.000
27.30966 855.000
27.35022 898.000
27.39078 840.000
27.43134 909.000
27.47190 914.000
27.51246 954.000
27.55302 1014.000
27.59358 1017.000
27.63414 906.000
27.67470 715.000
27.71526 660.000
27.75583 668.000
27.79639 591.000
27.83695 610.000
27.87751 622.000
27.91807 648.000
27.95863 750.000
27.99919 727.000
28.03975 740.000
28.08031 642.000
28.12087 645.000
28.16143 643.000
28.20199 644.000
28.24255 625.000
28.28311 706.000
28.32367 707.000
28.36423 825.000
28.40479 1000.000
28.44535 1096.000
28.48591 1425.000
28.52647 1832.000
28.56703 2214.000
28.60759 2401.000
28.64815 2342.000
28.68871 1984.000
28.72927 1848.000
28.76983 1699.000
28.81039 1585.000
28.85095 1267.000
28.89151 960.000
28.93207 794.000
28.97263 716.000
29.01319 646.000
29.05375 673.000
29.09431 664.000
29.13487 735.000
29.17543 717.000
29.21599 811.000
29.25655 737.000
29.29711 708.000
29.33767 694.000
29.37823 619.000
29.41879 636.000
29.45935 605.000
29.49991 628.000
29.54047 622.000
29.58103 736.000
29.62159 838.000
29.66216 932.000
29.70272 1076.000
29.74328 1346.000
29.78384 1678.000
29.82440 1785.000
29.86496 1836.000
29.90552 1714.000
29.94608 1491.000
29.98664 1442.000
30.02720 1448.000
30.06776 1626.000
30.10832 1621.000
30.14888 1475.000
30.18944 1427.000
30.23000 1267.000
30.27056 1177.000
30.31112 1146.000
30.35168 1038.000
30.39224 961.000
30.43280 864.000
30.47336 801.000
30.51392 719.000
30.55448 640.000
30.59504 599.000
30.63560 579.000
30.67616 654.000
30.71672 678.000
30.75728 688.000
30.79784 783.000
30.83840 760.000
30.87896 770.000
30.91952 803.000
30.96008 1021.000
31.00064 796.000
31.04120 804.000
31.08176 774.000
31.12232 780.000
31.16288 794.000
31.20344 850.000
31.24400 915.000
31.28456 990.000
31.32512 1094.000
31.36568 1206.000
31.40624 1238.000
31.44680 1156.000
31.48736 1101.000
31.52792 1203.000
31.56849 1402.000
31.60905 1613.000
31.64961 1799.000
31.69017 1846.000
31.73073 1754.000
31.77129 1441.000
31.81185 1241.000
31.85241 1069.000
31.89297 999.000
31.93353 1015.000
31.97409 1078.000
32.01465 1087.000
32.05521 1217.000
32.09577 1174.000
32.13633 1156.000
32.17689 927.000
32.21745 797.000
32.25801 686.000
32.29857 792.000
32.33913 764.000
32.37969 834.000
32.42025 843.000
32.46081 752.000
32.50137 768.000
32.54193 632.000
32.58249 654.000
32.62305 644.000
32.66361 669.000
32.70417 646.000
32.74473 688.000
32.78529 604.000
32.82585 625.000
32.86641 571.000
32.90697 600.000
32.94753 639.000
32.98809 633.000
33.02865 688.000
33.06921 739.000
33.10977 854.000
33.15033 913.000
33.19089 890.000
33.23145 847.000
33.27201 839.000
33.31257 683.000
33.35313 661.000
33.39369 654.000
33.43425 673.000
33.47482 755.000
33.51538 798.000
33.55594 782.000
33.59650 855.000
33.63706 916.000
33.67762 933.000
33.71818 963.000
33.75874 853.000
33.79930 745.000
33.83986 705.000
33.88042 629.000
33.92098 623.000
33.96154 620.000
34.00210 589.000
34.04266 584.000
34.08322 578.000
34.12378 608.000
34.16434 613.000
34.20490 654.000
34.24546 614.000
34.28602 571.000
34.32658 578.000
34.36714 535.000
34.40770 550.000
34.44826 533.000
34.48882 477.000
34.52938 567.000
34.56994 535.000
34.61050 600.000
34.65106 612.000
34.69162 677.000
34.73218 670.000
34.77274 670.000
34.81330 759.000
34.85386 751.000
34.89442 771.000
34.93498 895.000
34.97554 943.000
35.01610 1090.000
35.05666 1193.000
35.09722 1155.000
35.13778 1066.000
35.17834 1017.000
35.21890 986.000
35.25946 1005.000
35.30002 1004.000
35.34058 1034.000
35.38115 960.000
35.42171 845.000
35.46227 753.000
35.50283 594.000
35.54339 633.000
35.58395 614.000
35.62451 587.000
35.66507 604.000
35.70563 610.000
35.74619 595.000
35.78675 543.000
35.82731 543.000
35.86787 621.000
35.90843 653.000
35.94899 627.000
35.98955 784.000
36.03011 775.000
36.07067 848.000
36.11123 922.000
36.15179 1044.000
36.19235 1139.000
36.23291 1169.000
36.27347 1176.000
36.31403 1227.000
36.35459 1082.000
36.39515 955.000
36.43571 873.000
36.47627 842.000
36.51683 742.000
36.55739 717.000
36.59795 609.000
36.63851 655.000
36.67907 649.000
36.71963 682.000
36.76019 662.000
36.80075 625.000
36.84131 639.000
36.88187 604.000
36.92243 563.000
36.96299 581.000
37.00355 589.000
37.04411 576.000
37.08467 573.000
37.12523 629.000
37.16579 644.000
37.20635 745.000
37.24691 806.000
37.28748 784.000
37.32804 849.000
37.36860 760.000
37.40916 719.000
37.44972 701.000
37.49028 650.000
37.53084 605.000
37.57140 573.000
37.61196 542.000
37.65252 537.000
37.69308 528.000
37.73364 546.000
37.77420 531.000
37.81476 588.000
37.85532 615.000
37.89588 638.000
37.93644 711.000
37.97700 757.000
38.01756 764.000
38.05812 725.000
38.09868 691.000
38.13924 674.000
38.17980 675.000
38.22036 667.000
38.26092 740.000
38.30148 767.000
38.34204 862.000
38.38260 831.000
38.42316 813.000
38.46372 854.000
38.50428 775.000
38.54484 800.000
38.58540 710.000
38.62596 709.000
38.66652 677.000
38.70708 618.000
38.74764 614.000
38.78820 605.000
38.82876 664.000
38.86932 665.000
38.90988 786.000
38.95044 769.000
38.99100 872.000
39.03156 964.000
39.07212 971.000
39.11268 930.000
39.15324 892.000
39.19381 753.000
39.23437 666.000
39.27493 650.000
39.31549 628.000
39.35605 597.000
39.39661 641.000
39.43717 639.000
39.47773 611.000
39.51829 685.000
39.55885 743.000
39.59941 735.000
39.63997 726.000
39.68053 733.000
39.72109 663.000
39.76165 646.000
39.80221 644.000
39.84277 596.000
39.88333 671.000
39.92389 690.000
39.96445 663.000
40.00501 654.000
40.04557 667.000
40.08613 690.000
40.12669 676.000
40.16725 676.000
40.20781 719.000
40.24837 674.000
40.28893 691.000
40.32949 717.000
40.37005 796.000
40.41061 840.000
40.45117 969.000
40.49173 1026.000
40.53229 1101.000
40.57285 1164.000
40.61341 1141.000
40.65397 1103.000
40.69453 939.000
40.73509 880.000
40.77565 708.000
40.81621 669.000
40.85677 641.000
40.89733 622.000
40.93789 602.000
40.97845 570.000
41.01901 643.000
41.05957 618.000
41.10014 609.000
41.14070 606.000
41.18126 601.000
41.22182 650.000
41.26238 609.000
41.30294 658.000
41.34350 628.000
41.38406 640.000
41.42462 595.000
41.46518 547.000
41.50574 505.000
41.54630 500.000
41.58686 502.000
41.62742 496.000
41.66798 530.000
41.70854 533.000
41.74910 564.000
41.78966 573.000
41.83022 604.000
41.87078 545.000
41.91134 585.000
41.95190 539.000
41.99246 537.000
42.03302 458.000
42.07358 478.000
42.11414 491.000
42.15470 502.000
42.19526 468.000
42.23582 498.000
42.27638 464.000
42.31694 535.000
42.35750 489.000
42.39806 527.000
42.43862 569.000
42.47918 553.000
42.51974 655.000
42.56030 624.000
42.60086 660.000
42.64142 692.000
42.68198 671.000
42.72254 645.000
42.76310 625.000
42.80366 579.000
42.84422 573.000
42.88478 565.000
42.92534 561.000
42.96590 563.000
43.00647 548.000
43.04703 619.000
43.08759 577.000
43.12815 619.000
43.16871 703.000
43.20927 677.000
43.24983 660.000
43.29039 739.000
43.33095 662.000
43.37151 642.000
43.41207 646.000
43.45263 626.000
43.49319 657.000
43.53375 618.000
43.57431 614.000
43.61487 676.000
43.65543 727.000
43.69599 664.000
43.73655 722.000
43.77711 706.000
43.81767 662.000
43.85823 673.000
43.89879 661.000
43.93935 613.000
43.97991 671.000
44.02047 601.000
44.06103 606.000
44.10159 596.000
44.14215 585.000
44.18271 604.000
44.22327 654.000
44.26383 680.000
44.30439 714.000
44.34495 755.000
44.38551 754.000
44.42607 812.000
44.46663 815.000
44.50719 903.000
44.54775 840.000
44.58831 894.000
44.62887 832.000
44.66943 751.000
44.70999 730.000
44.75055 772.000
44.79111 752.000
44.83167 715.000
44.87223 734.000
44.91280 702.000
44.95336 666.000
44.99392 632.000
45.03448 614.000
45.07504 643.000
45.11560 641.000
45.15616 647.000
45.19672 638.000
45.23728 624.000
45.27784 632.000
45.31840 608.000
45.35896 635.000
45.39952 666.000
45.44008 660.000
45.48064 669.000
45.52120 682.000
45.56176 612.000
45.60232 693.000
45.64288 656.000
45.68344 635.000
45.72400 613.000
45.76456 599.000
45.80512 611.000
45.84568 560.000
45.88624 568.000
45.92680 556.000
45.96736 557.000
46.00792 565.000
46.04848 584.000
46.08904 609.000
46.12960 627.000
46.17016 588.000
46.21072 663.000
46.25128 661.000
46.29184 658.000
46.33240 662.000
46.37296 668.000
46.41352 642.000
46.45408 679.000
46.49464 738.000
46.53520 730.000
46.57576 778.000
46.61632 788.000
46.65688 738.000
46.69744 664.000
46.73800 669.000
46.77856 626.000
46.81913 560.000
46.85969 597.000
46.90025 568.000
46.94081 556.000
46.98137 544.000
47.02193 546.000
47.06249 597.000
47.10305 613.000
47.14361 602.000
47.18417 557.000
47.22473 563.000
47.26529 607.000
47.30585 560.000
47.34641 604.000
47.38697 569.000
47.42753 626.000
47.46809 574.000
47.50865 643.000
47.54921 607.000
47.58977 565.000
47.63033 604.000
47.67089 585.000
47.71145 575.000
47.75201 584.000
47.79257 555.000
47.83313 597.000
47.87369 600.000
47.91425 614.000
47.95481 600.000
47.99537 582.000
48.03593 644.000
48.07649 652.000
48.11705 604.000
48.15761 582.000
48.19817 585.000
48.23873 562.000
48.27929 575.000
48.31985 586.000
48.36041 533.000
48.40097 620.000
48.44153 590.000
48.48209 524.000
48.52265 538.000
48.56321 571.000
48.60377 522.000
48.64433 534.000
48.68489 513.000
48.72546 512.000
48.76602 543.000
48.80658 581.000
48.84714 531.000
48.88770 610.000
48.92826 546.000
48.96882 533.000
49.00938 578.000
49.04994 586.000
49.09050 585.000
49.13106 594.000
49.17162 563.000
49.21218 590.000
49.25274 556.000
49.29330 553.000
49.33386 555.000
49.37442 581.000
49.41498 528.000
49.45554 500.000
49.49610 499.000
49.53666 547.000
49.57722 485.000
49.61778 460.000
49.65834 477.000
49.69890 513.000
49.73946 516.000
49.78002 495.000
49.82058 528.000
49.86114 532.000
49.90170 552.000
49.94226 488.000
49.98282 536.000
50.00310 489.000