File: Task01/nick/files/ESI_material_XRD/kinetics/crystal_size_analysis/50ul IPA/2007_RVR_IPA_15m.xy
5.00155 830.000
5.04211 827.000
5.08267 744.000
5.12323 776.000
5.16379 718.000
5.20435 674.000
5.24491 698.000
5.28547 671.000
5.32603 677.000
5.36659 643.000
5.40715 669.000
5.44771 634.000
5.48827 571.000
5.52883 575.000
5.56939 610.000
5.60995 561.000
5.65051 557.000
5.69107 610.000
5.73163 569.000
5.77219 513.000
5.81275 514.000
5.85331 566.000
5.89387 481.000
5.93443 555.000
5.97499 504.000
6.01555 496.000
6.05611 476.000
6.09667 495.000
6.13723 481.000
6.17779 494.000
6.21835 516.000
6.25891 518.000
6.29947 556.000
6.34003 649.000
6.38059 712.000
6.42115 876.000
6.46171 942.000
6.50227 959.000
6.54283 778.000
6.58339 624.000
6.62395 483.000
6.66451 430.000
6.70507 429.000
6.74564 444.000
6.78620 454.000
6.82676 436.000
6.86732 397.000
6.90788 421.000
6.94844 416.000
6.98900 398.000
7.02956 384.000
7.07012 389.000
7.11068 350.000
7.15124 417.000
7.19180 385.000
7.23236 379.000
7.27292 355.000
7.31348 323.000
7.35404 400.000
7.39460 361.000
7.43516 358.000
7.47572 377.000
7.51628 380.000
7.55684 361.000
7.59740 384.000
7.63796 340.000
7.67852 362.000
7.71908 359.000
7.75964 411.000
7.80020 351.000
7.84076 374.000
7.88132 397.000
7.92188 373.000
7.96244 337.000
8.00300 388.000
8.04356 410.000
8.08412 400.000
8.12468 388.000
8.16524 441.000
8.20580 412.000
8.24636 448.000
8.28692 514.000
8.32748 540.000
8.36804 563.000
8.40860 672.000
8.44916 863.000
8.48972 1123.000
8.53028 1556.000
8.57084 2468.000
8.61140 3997.000
8.65197 5410.000
8.69253 6286.000
8.73309 5772.000
8.77365 3894.000
8.81421 1922.000
8.85477 1082.000
8.89533 722.000
8.93589 710.000
8.97645 628.000
9.01701 554.000
9.05757 518.000
9.09813 547.000
9.13869 504.000
9.17925 557.000
9.21981 542.000
9.26037 623.000
9.30093 671.000
9.34149 798.000
9.38205 1164.000
9.42261 1558.000
9.46317 2439.000
9.50373 3249.000
9.54429 3736.000
9.58485 3413.000
9.62541 2325.000
9.66597 1333.000
9.70653 1081.000
9.74709 1329.000
9.78765 1875.000
9.82821 2758.000
9.86877 3896.000
9.90933 4537.000
9.94989 4249.000
9.99045 2894.000
10.03101 1541.000
10.07157 917.000
10.11213 714.000
10.15269 666.000
10.19325 642.000
10.23381 521.000
10.27437 515.000
10.31493 504.000
10.35549 532.000
10.39605 589.000
10.43661 562.000
10.47717 528.000
10.51773 569.000
10.55830 511.000
10.59886 483.000
10.63942 452.000
10.67998 433.000
10.72054 539.000
10.76110 518.000
10.80166 648.000
10.84222 811.000
10.88278 1213.000
10.92334 1905.000
10.96390 2546.000
11.00446 2902.000
11.04502 2473.000
11.08558 1631.000
11.12614 812.000
11.16670 559.000
11.20726 441.000
11.24782 500.000
11.28838 433.000
11.32894 425.000
11.36950 447.000
11.41006 444.000
11.45062 416.000
11.49118 429.000
11.53174 422.000
11.57230 375.000
11.61286 391.000
11.65342 374.000
11.69398 414.000
11.73454 401.000
11.77510 391.000
11.81566 371.000
11.85622 441.000
11.89678 366.000
11.93734 343.000
11.97790 392.000
12.01846 406.000
12.05902 419.000
12.09958 387.000
12.14014 410.000
12.18070 404.000
12.22126 403.000
12.26182 350.000
12.30238 404.000
12.34294 451.000
12.38350 470.000
12.42406 477.000
12.46463 487.000
12.50519 498.000
12.54575 396.000
12.58631 385.000
12.62687 352.000
12.66743 388.000
12.70799 375.000
12.74855 415.000
12.78911 405.000
12.82967 407.000
12.87023 429.000
12.91079 452.000
12.95135 465.000
12.99191 567.000
13.03247 559.000
13.07303 643.000
13.11359 607.000
13.15415 578.000
13.19471 634.000
13.23527 837.000
13.27583 1002.000
13.31639 1080.000
13.35695 1046.000
13.39751 881.000
13.43807 642.000
13.47863 597.000
13.51919 587.000
13.55975 696.000
13.60031 958.000
13.64087 1377.000
13.68143 2172.000
13.72199 2808.000
13.76255 3460.000
13.80311 3588.000
13.84367 3140.000
13.88423 2736.000
13.92479 1995.000
13.96535 1200.000
14.00591 796.000
14.04647 627.000
14.08703 584.000
14.12759 527.000
14.16815 473.000
14.20871 469.000
14.24927 407.000
14.28983 423.000
14.33039 465.000
14.37096 466.000
14.41152 461.000
14.45208 409.000
14.49264 478.000
14.53320 403.000
14.57376 449.000
14.61432 463.000
14.65488 509.000
14.69544 481.000
14.73600 517.000
14.77656 498.000
14.81712 634.000
14.85768 796.000
14.89824 961.000
14.93880 999.000
14.97936 989.000
15.01992 774.000
15.06048 546.000
15.10104 484.000
15.14160 489.000
15.18216 460.000
15.22272 483.000
15.26328 487.000
15.30384 478.000
15.34440 495.000
15.38496 461.000
15.42552 497.000
15.46608 527.000
15.50664 576.000
15.54720 721.000
15.58776 869.000
15.62832 1112.000
15.66888 1278.000
15.70944 1324.000
15.75000 1126.000
15.79056 1021.000
15.83112 900.000
15.87168 911.000
15.91224 965.000
15.95280 1221.000
15.99336 1702.000
16.03392 2829.000
16.07448 3956.000
16.11504 5062.000
16.15560 4980.000
16.19616 3961.000
16.23672 2292.000
16.27729 1385.000
16.31785 1128.000
16.35841 1160.000
16.39897 1427.000
16.43953 1672.000
16.48009 1848.000
16.52065 1813.000
16.56121 1747.000
16.60177 2084.000
16.64233 2803.000
16.68289 3754.000
16.72345 4242.000
16.76401 3977.000
16.80457 2893.000
16.84513 1628.000
16.88569 1128.000
16.92625 929.000
16.96681 855.000
17.00737 812.000
17.04793 809.000
17.08849 881.000
17.12905 925.000
17.16961 1191.000
17.21017 1420.000
17.25073 2035.000
17.29129 3024.000
17.33185 4633.000
17.37241 5902.000
17.41297 6167.000
17.45353 5032.000
17.49409 3128.000
17.53465 1820.000
17.57521 1481.000
17.61577 1606.000
17.65633 2128.000
17.69689 3270.000
17.73745 5654.000
17.77801 8121.000
17.81857 9105.000
17.85913 8488.000
17.89969 5668.000
17.94025 3134.000
17.98081 2094.000
18.02137 1821.000
18.06193 1623.000
18.10249 1462.000
18.14305 1519.000
18.18362 1723.000
18.22418 2218.000
18.26474 3157.000
18.30530 4848.000
18.34586 6855.000
18.38642 8815.000
18.42698 9842.000
18.46754 9040.000
18.50810 6474.000
18.54866 3752.000
18.58922 2074.000
18.62978 1391.000
18.67034 1306.000
18.71090 1279.000
18.75146 1356.000
18.79202 1615.000
18.83258 2107.000
18.87314 2985.000
18.91370 3914.000
18.95426 4653.000
18.99482 4577.000
19.03538 3759.000
19.07594 2828.000
19.11650 2161.000
19.15706 1694.000
19.19762 1415.000
19.23818 1293.000
19.27874 1376.000
19.31930 1553.000
19.35986 1760.000
19.40042 2024.000
19.44098 2493.000
19.48154 3138.000
19.52210 3768.000
19.56266 4181.000
19.60322 3715.000
19.64378 2897.000
19.68434 2396.000
19.72490 2668.000
19.76546 3381.000
19.80602 4100.000
19.84658 4246.000
19.88714 3924.000
19.92770 3302.000
19.96826 3512.000
20.00882 4563.000
20.04938 5950.000
20.08995 7069.000
20.13051 6643.000
20.17107 5112.000
20.21163 3329.000
20.25219 2471.000
20.29275 2303.000
20.33331 2370.000
20.37387 2626.000
20.41443 2652.000
20.45499 2395.000
20.49555 2270.000
20.53611 2255.000
20.57667 3156.000
20.61723 4471.000
20.65779 5532.000
20.69835 5847.000
20.73891 4714.000
20.77947 3084.000
20.82003 1934.000
20.86059 1559.000
20.90115 1567.000
20.94171 1606.000
20.98227 1654.000
21.02283 1595.000
21.06339 1347.000
21.10395 1242.000
21.14451 1191.000
21.18507 1268.000
21.22563 1364.000
21.26619 1678.000
21.30675 1803.000
21.34731 2018.000
21.38787 2443.000
21.42843 2951.000
21.46899 3711.000
21.50955 4280.000
21.55011 4444.000
21.59067 4475.000
21.63123 5135.000
21.67179 6594.000
21.71235 7887.000
21.75291 8223.000
21.79347 6821.000
21.83403 4549.000
21.87459 2702.000
21.91515 1934.000
21.95571 1605.000
21.99628 1654.000
22.03684 1689.000
22.07740 1948.000
22.11796 2258.000
22.15852 2834.000
22.19908 3529.000
22.23964 3836.000
22.28020 3576.000
22.32076 2693.000
22.36132 1745.000
22.40188 1336.000
22.44244 1118.000
22.48300 1124.000
22.52356 1218.000
22.56412 1335.000
22.60468 1433.000
22.64524 1619.000
22.68580 1662.000
22.72636 1995.000
22.76692 2254.000
22.80748 2469.000
22.84804 2144.000
22.88860 1721.000
22.92916 1477.000
22.96972 1167.000
23.01028 1068.000
23.05084 1210.000
23.09140 1296.000
23.13196 1240.000
23.17252 1244.000
23.21308 1120.000
23.25364 971.000
23.29420 1037.000
23.33476 1167.000
23.37532 1404.000
23.41588 1734.000
23.45644 2110.000
23.49700 2229.000
23.53756 2182.000
23.57812 1793.000
23.61868 1520.000
23.65924 1378.000
23.69980 1494.000
23.74036 1532.000
23.78092 1444.000
23.82148 1327.000
23.86204 1335.000
23.90261 1407.000
23.94317 1539.000
23.98373 1792.000
24.02429 1996.000
24.06485 2040.000
24.10541 2068.000
24.14597 2132.000
24.18653 2121.000
24.22709 2135.000
24.26765 2031.000
24.30821 1783.000
24.34877 1451.000
24.38933 1264.000
24.42989 1267.000
24.47045 1397.000
24.51101 1467.000
24.55157 1298.000
24.59213 1160.000
24.63269 1112.000
24.67325 1262.000
24.71381 1535.000
24.75437 1837.000
24.79493 2073.000
24.83549 2085.000
24.87605 1931.000
24.91661 1766.000
24.95717 1455.000
24.99773 1290.000
25.03829 987.000
25.07885 989.000
25.11941 991.000
25.15997 1110.000
25.20053 1311.000
25.24109 1631.000
25.28165 2320.000
25.32221 2969.000
25.36277 3787.000
25.40333 4031.000
25.44389 3651.000
25.48445 3079.000
25.52501 2485.000
25.56557 1814.000
25.60613 1528.000
25.64669 1239.000
25.68725 1108.000
25.72781 1221.000
25.76837 1489.000
25.80893 1639.000
25.84950 1961.000
25.89006 1905.000
25.93062 1627.000
25.97118 1496.000
26.01174 1442.000
26.05230 1543.000
26.09286 1925.000
26.13342 2321.000
26.17398 2430.000
26.21454 2439.000
26.25510 2143.000
26.29566 1855.000
26.33622 1944.000
26.37678 1884.000
26.41734 1839.000
26.45790 1791.000
26.49846 1794.000
26.53902 1859.000
26.57958 1701.000
26.62014 1487.000
26.66070 1176.000
26.70126 961.000
26.74182 855.000
26.78238 894.000
26.82294 862.000
26.86350 1034.000
26.90406 1124.000
26.94462 1302.000
26.98518 1390.000
27.02574 1291.000
27.06630 1118.000
27.10686 884.000
27.14742 666.000
27.18798 732.000
27.22854 786.000
27.26910 749.000
27.30966 813.000
27.35022 831.000
27.39078 926.000
27.43134 831.000
27.47190 907.000
27.51246 901.000
27.55302 1019.000
27.59358 1054.000
27.63414 1051.000
27.67470 901.000
27.71526 740.000
27.75583 682.000
27.79639 649.000
27.83695 667.000
27.87751 667.000
27.91807 680.000
27.95863 696.000
27.99919 698.000
28.03975 751.000
28.08031 736.000
28.12087 692.000
28.16143 704.000
28.20199 651.000
28.24255 639.000
28.28311 643.000
28.32367 695.000
28.36423 735.000
28.40479 827.000
28.44535 930.000
28.48591 1188.000
28.52647 1542.000
28.56703 1880.000
28.60759 2226.000
28.64815 2493.000
28.68871 2429.000
28.72927 2117.000
28.76983 1971.000
28.81039 1732.000
28.85095 1586.000
28.89151 1275.000
28.93207 1028.000
28.97263 889.000
29.01319 798.000
29.05375 618.000
29.09431 665.000
29.13487 667.000
29.17543 709.000
29.21599 776.000
29.25655 819.000
29.29711 786.000
29.33767 738.000
29.37823 729.000
29.41879 628.000
29.45935 588.000
29.49991 600.000
29.54047 600.000
29.58103 685.000
29.62159 761.000
29.66216 795.000
29.70272 949.000
29.74328 1116.000
29.78384 1439.000
29.82440 1801.000
29.86496 1933.000
29.90552 1819.000
29.94608 1642.000
29.98664 1600.000
30.02720 1509.000
30.06776 1532.000
30.10832 1727.000
30.14888 1648.000
30.18944 1567.000
30.23000 1456.000
30.27056 1236.000
30.31112 1227.000
30.35168 1158.000
30.39224 1149.000
30.43280 1032.000
30.47336 874.000
30.51392 812.000
30.55448 629.000
30.59504 642.000
30.63560 599.000
30.67616 653.000
30.71672 660.000
30.75728 660.000
30.79784 763.000
30.83840 740.000
30.87896 772.000
30.91952 831.000
30.96008 925.000
31.00064 923.000
31.04120 884.000
31.08176 809.000
31.12232 741.000
31.16288 759.000
31.20344 819.000
31.24400 894.000
31.28456 922.000
31.32512 1043.000
31.36568 1203.000
31.40624 1234.000
31.44680 1319.000
31.48736 1128.000
31.52792 1181.000
31.56849 1274.000
31.60905 1524.000
31.64961 1675.000
31.69017 1848.000
31.73073 1996.000
31.77129 1889.000
31.81185 1567.000
31.85241 1381.000
31.89297 1272.000
31.93353 1131.000
31.97409 1068.000
32.01465 1106.000
32.05521 1219.000
32.09577 1318.000
32.13633 1220.000
32.17689 1197.000
32.21745 1019.000
32.25801 832.000
32.29857 754.000
32.33913 814.000
32.37969 791.000
32.42025 825.000
32.46081 895.000
32.50137 800.000
32.54193 759.000
32.58249 720.000
32.62305 707.000
32.66361 663.000
32.70417 672.000
32.74473 675.000
32.78529 665.000
32.82585 655.000
32.86641 622.000
32.90697 546.000
32.94753 648.000
32.98809 614.000
33.02865 610.000
33.06921 739.000
33.10977 816.000
33.15033 960.000
33.19089 1037.000
33.23145 1030.000
33.27201 894.000
33.31257 833.000
33.35313 771.000
33.39369 673.000
33.43425 649.000
33.47482 721.000
33.51538 716.000
33.55594 794.000
33.59650 785.000
33.63706 888.000
33.67762 995.000
33.71818 1011.000
33.75874 1047.000
33.79930 938.000
33.83986 822.000
33.88042 705.000
33.92098 679.000
33.96154 666.000
34.00210 662.000
34.04266 624.000
34.08322 588.000
34.12378 576.000
34.16434 600.000
34.20490 607.000
34.24546 658.000
34.28602 624.000
34.32658 587.000
34.36714 619.000
34.40770 490.000
34.44826 461.000
34.48882 553.000
34.52938 509.000
34.56994 512.000
34.61050 540.000
34.65106 570.000
34.69162 616.000
34.73218 675.000
34.77274 707.000
34.81330 732.000
34.85386 696.000
34.89442 722.000
34.93498 831.000
34.97554 918.000
35.01610 1013.000
35.05666 1109.000
35.09722 1175.000
35.13778 1158.000
35.17834 1137.000
35.21890 1031.000
35.25946 1067.000
35.30002 1044.000
35.34058 1130.000
35.38115 1093.000
35.42171 947.000
35.46227 913.000
35.50283 755.000
35.54339 682.000
35.58395 586.000
35.62451 655.000
35.66507 639.000
35.70563 593.000
35.74619 581.000
35.78675 608.000
35.82731 554.000
35.86787 594.000
35.90843 643.000
35.94899 711.000
35.98955 741.000
36.03011 811.000
36.07067 810.000
36.11123 867.000
36.15179 991.000
36.19235 1114.000
36.23291 1221.000
36.27347 1278.000
36.31403 1225.000
36.35459 1242.000
36.39515 1164.000
36.43571 1002.000
36.47627 997.000
36.51683 892.000
36.55739 758.000
36.59795 746.000
36.63851 666.000
36.67907 690.000
36.71963 633.000
36.76019 659.000
36.80075 657.000
36.84131 744.000
36.88187 655.000
36.92243 593.000
36.96299 563.000
37.00355 540.000
37.04411 542.000
37.08467 528.000
37.12523 634.000
37.16579 652.000
37.20635 737.000
37.24691 742.000
37.28748 860.000
37.32804 849.000
37.36860 886.000
37.40916 832.000
37.44972 776.000
37.49028 698.000
37.53084 684.000
37.57140 645.000
37.61196 587.000
37.65252 567.000
37.69308 549.000
37.73364 571.000
37.77420 520.000
37.81476 566.000
37.85532 551.000
37.89588 635.000
37.93644 667.000
37.97700 747.000
38.01756 765.000
38.05812 829.000
38.09868 778.000
38.13924 725.000
38.17980 720.000
38.22036 698.000
38.26092 693.000
38.30148 749.000
38.34204 811.000
38.38260 804.000
38.42316 839.000
38.46372 872.000
38.50428 878.000
38.54484 905.000
38.58540 850.000
38.62596 740.000
38.66652 656.000
38.70708 676.000
38.74764 673.000
38.78820 675.000
38.82876 659.000
38.86932 661.000
38.90988 752.000
38.95044 790.000
38.99100 845.000
39.03156 969.000
39.07212 1055.000
39.11268 1036.000
39.15324 1014.000
39.19381 922.000
39.23437 837.000
39.27493 778.000
39.31549 705.000
39.35605 644.000
39.39661 617.000
39.43717 668.000
39.47773 648.000
39.51829 693.000
39.55885 716.000
39.59941 730.000
39.63997 722.000
39.68053 793.000
39.72109 721.000
39.76165 667.000
39.80221 675.000
39.84277 655.000
39.88333 679.000
39.92389 657.000
39.96445 667.000
40.00501 661.000
40.04557 712.000
40.08613 706.000
40.12669 706.000
40.16725 696.000
40.20781 696.000
40.24837 694.000
40.28893 663.000
40.32949 712.000
40.37005 771.000
40.41061 823.000
40.45117 939.000
40.49173 989.000
40.53229 1118.000
40.57285 1156.000
40.61341 1177.000
40.65397 1102.000
40.69453 1143.000
40.73509 1024.000
40.77565 871.000
40.81621 778.000
40.85677 685.000
40.89733 645.000
40.93789 637.000
40.97845 611.000
41.01901 652.000
41.05957 667.000
41.10014 609.000
41.14070 628.000
41.18126 674.000
41.22182 629.000
41.26238 638.000
41.30294 714.000
41.34350 682.000
41.38406 661.000
41.42462 660.000
41.46518 606.000
41.50574 593.000
41.54630 533.000
41.58686 501.000
41.62742 526.000
41.66798 529.000
41.70854 526.000
41.74910 526.000
41.78966 628.000
41.83022 609.000
41.87078 598.000
41.91134 604.000
41.95190 539.000
41.99246 547.000
42.03302 484.000
42.07358 516.000
42.11414 499.000
42.15470 525.000
42.19526 522.000
42.23582 476.000
42.27638 528.000
42.31694 526.000
42.35750 557.000
42.39806 525.000
42.43862 554.000
42.47918 553.000
42.51974 574.000
42.56030 642.000
42.60086 681.000
42.64142 707.000
42.68198 689.000
42.72254 689.000
42.76310 708.000
42.80366 663.000
42.84422 624.000
42.88478 558.000
42.92534 561.000
42.96590 610.000
43.00647 590.000
43.04703 588.000
43.08759 598.000
43.12815 608.000
43.16871 670.000
43.20927 705.000
43.24983 731.000
43.29039 711.000
43.33095 723.000
43.37151 699.000
43.41207 702.000
43.45263 686.000
43.49319 677.000
43.53375 628.000
43.57431 653.000
43.61487 638.000
43.65543 702.000
43.69599 692.000
43.73655 730.000
43.77711 746.000
43.81767 737.000
43.85823 714.000
43.89879 710.000
43.93935 644.000
43.97991 679.000
44.02047 677.000
44.06103 630.000
44.10159 603.000
44.14215 634.000
44.18271 642.000
44.22327 639.000
44.26383 675.000
44.30439 648.000
44.34495 741.000
44.38551 852.000
44.42607 797.000
44.46663 939.000
44.50719 867.000
44.54775 864.000
44.58831 915.000
44.62887 882.000
44.66943 866.000
44.70999 826.000
44.75055 813.000
44.79111 832.000
44.83167 810.000
44.87223 790.000
44.91280 766.000
44.95336 745.000
44.99392 670.000
45.03448 651.000
45.07504 663.000
45.11560 718.000
45.15616 717.000
45.19672 701.000
45.23728 709.000
45.27784 640.000
45.31840 653.000
45.35896 672.000
45.39952 679.000
45.44008 670.000
45.48064 662.000
45.52120 659.000
45.56176 703.000
45.60232 719.000
45.64288 677.000
45.68344 725.000
45.72400 663.000
45.76456 625.000
45.80512 651.000
45.84568 649.000
45.88624 621.000
45.92680 617.000
45.96736 594.000
46.00792 550.000
46.04848 608.000
46.08904 603.000
46.12960 578.000
46.17016 694.000
46.21072 676.000
46.25128 676.000
46.29184 686.000
46.33240 663.000
46.37296 714.000
46.41352 683.000
46.45408 705.000
46.49464 757.000
46.53520 732.000
46.57576 826.000
46.61632 792.000
46.65688 715.000
46.69744 747.000
46.73800 744.000
46.77856 694.000
46.81913 672.000
46.85969 629.000
46.90025 618.000
46.94081 549.000
46.98137 626.000
47.02193 632.000
47.06249 587.000
47.10305 602.000
47.14361 660.000
47.18417 603.000
47.22473 616.000
47.26529 566.000
47.30585 575.000
47.34641 596.000
47.38697 622.000
47.42753 580.000
47.46809 568.000
47.50865 662.000
47.54921 612.000
47.58977 629.000
47.63033 602.000
47.67089 607.000
47.71145 617.000
47.75201 580.000
47.79257 658.000
47.83313 559.000
47.87369 613.000
47.91425 586.000
47.95481 617.000
47.99537 653.000
48.03593 676.000
48.07649 663.000
48.11705 642.000
48.15761 621.000
48.19817 652.000
48.23873 574.000
48.27929 617.000
48.31985 592.000
48.36041 611.000
48.40097 598.000
48.44153 586.000
48.48209 634.000
48.52265 577.000
48.56321 570.000
48.60377 560.000
48.64433 564.000
48.68489 582.000
48.72546 562.000
48.76602 558.000
48.80658 529.000
48.84714 566.000
48.88770 569.000
48.92826 595.000
48.96882 613.000
49.00938 659.000
49.04994 599.000
49.09050 648.000
49.13106 578.000
49.17162 652.000
49.21218 657.000
49.25274 597.000
49.29330 599.000
49.33386 547.000
49.37442 538.000
49.41498 600.000
49.45554 575.000
49.49610 578.000
49.53666 495.000
49.57722 545.000
49.61778 504.000
49.65834 532.000
49.69890 520.000
49.73946 512.000
49.78002 528.000
49.82058 496.000
49.86114 580.000
49.90170 562.000
49.94226 533.000
49.98282 539.000
50.00310 515.000