File: Task01/nick/files/ESI_material_XRD/kinetics/crystal_size_analysis/50ul IPA/2016_RVR_IPA_7.5m.xy
5.00155 880.000
5.04211 875.000
5.08267 875.000
5.12323 866.000
5.16379 824.000
5.20435 801.000
5.24491 747.000
5.28547 731.000
5.32603 730.000
5.36659 729.000
5.40715 705.000
5.44771 737.000
5.48827 652.000
5.52883 691.000
5.56939 649.000
5.60995 672.000
5.65051 627.000
5.69107 628.000
5.73163 618.000
5.77219 610.000
5.81275 629.000
5.85331 619.000
5.89387 600.000
5.93443 586.000
5.97499 644.000
6.01555 517.000
6.05611 517.000
6.09667 525.000
6.13723 566.000
6.17779 557.000
6.21835 634.000
6.25891 623.000
6.29947 714.000
6.34003 832.000
6.38059 997.000
6.42115 1148.000
6.46171 1133.000
6.50227 1007.000
6.54283 765.000
6.58339 589.000
6.62395 583.000
6.66451 602.000
6.70507 621.000
6.74564 725.000
6.78620 799.000
6.82676 868.000
6.86732 869.000
6.90788 791.000
6.94844 651.000
6.98900 536.000
7.02956 451.000
7.07012 472.000
7.11068 426.000
7.15124 439.000
7.19180 440.000
7.23236 462.000
7.27292 456.000
7.31348 423.000
7.35404 412.000
7.39460 422.000
7.43516 454.000
7.47572 443.000
7.51628 441.000
7.55684 390.000
7.59740 406.000
7.63796 417.000
7.67852 440.000
7.71908 379.000
7.75964 411.000
7.80020 441.000
7.84076 452.000
7.88132 488.000
7.92188 438.000
7.96244 403.000
8.00300 447.000
8.04356 447.000
8.08412 428.000
8.12468 480.000
8.16524 498.000
8.20580 520.000
8.24636 581.000
8.28692 726.000
8.32748 897.000
8.36804 1132.000
8.40860 1365.000
8.44916 1549.000
8.48972 1850.000
8.53028 2605.000
8.57084 4176.000
8.61140 6040.000
8.65197 7475.000
8.69253 7170.000
8.73309 4876.000
8.77365 2843.000
8.81421 1548.000
8.85477 1025.000
8.89533 842.000
8.93589 670.000
8.97645 607.000
9.01701 622.000
9.05757 626.000
9.09813 573.000
9.13869 598.000
9.17925 653.000
9.21981 628.000
9.26037 673.000
9.30093 876.000
9.34149 1114.000
9.38205 1556.000
9.42261 2419.000
9.46317 3546.000
9.50373 4149.000
9.54429 4020.000
9.58485 2905.000
9.62541 1798.000
9.66597 1320.000
9.70653 1314.000
9.74709 1816.000
9.78765 2643.000
9.82821 3891.000
9.86877 4947.000
9.90933 4828.000
9.94989 3511.000
9.99045 1953.000
10.03101 1249.000
10.07157 942.000
10.11213 705.000
10.15269 654.000
10.19325 601.000
10.23381 543.000
10.27437 542.000
10.31493 535.000
10.35549 539.000
10.39605 597.000
10.43661 689.000
10.47717 642.000
10.51773 634.000
10.55830 624.000
10.59886 583.000
10.63942 556.000
10.67998 510.000
10.72054 619.000
10.76110 645.000
10.80166 757.000
10.84222 1061.000
10.88278 1609.000
10.92334 2455.000
10.96390 3035.000
11.00446 2727.000
11.04502 1883.000
11.08558 1110.000
11.12614 683.000
11.16670 552.000
11.20726 499.000
11.24782 463.000
11.28838 444.000
11.32894 409.000
11.36950 470.000
11.41006 419.000
11.45062 443.000
11.49118 395.000
11.53174 394.000
11.57230 414.000
11.61286 393.000
11.65342 393.000
11.69398 462.000
11.73454 420.000
11.77510 429.000
11.81566 387.000
11.85622 411.000
11.89678 427.000
11.93734 383.000
11.97790 382.000
12.01846 406.000
12.05902 396.000
12.09958 389.000
12.14014 408.000
12.18070 392.000
12.22126 405.000
12.26182 409.000
12.30238 426.000
12.34294 431.000
12.38350 499.000
12.42406 472.000
12.46463 473.000
12.50519 434.000
12.54575 382.000
12.58631 411.000
12.62687 370.000
12.66743 379.000
12.70799 443.000
12.74855 378.000
12.78911 400.000
12.82967 416.000
12.87023 410.000
12.91079 482.000
12.95135 549.000
12.99191 626.000
13.03247 640.000
13.07303 657.000
13.11359 606.000
13.15415 682.000
13.19471 835.000
13.23527 987.000
13.27583 1128.000
13.31639 1221.000
13.35695 994.000
13.39751 798.000
13.43807 641.000
13.47863 679.000
13.51919 733.000
13.55975 1050.000
13.60031 1338.000
13.64087 1937.000
13.68143 2709.000
13.72199 3516.000
13.76255 3595.000
13.80311 3543.000
13.84367 3253.000
13.88423 2254.000
13.92479 1420.000
13.96535 955.000
14.00591 668.000
14.04647 585.000
14.08703 470.000
14.12759 516.000
14.16815 468.000
14.20871 502.000
14.24927 436.000
14.28983 431.000
14.33039 455.000
14.37096 444.000
14.41152 434.000
14.45208 442.000
14.49264 481.000
14.53320 455.000
14.57376 478.000
14.61432 556.000
14.65488 584.000
14.69544 699.000
14.73600 688.000
14.77656 679.000
14.81712 796.000
14.85768 959.000
14.89824 1077.000
14.93880 1118.000
14.97936 935.000
15.01992 729.000
15.06048 564.000
15.10104 516.000
15.14160 496.000
15.18216 478.000
15.22272 496.000
15.26328 520.000
15.30384 445.000
15.34440 473.000
15.38496 461.000
15.42552 511.000
15.46608 569.000
15.50664 669.000
15.54720 827.000
15.58776 1041.000
15.62832 1225.000
15.66888 1389.000
15.70944 1226.000
15.75000 1059.000
15.79056 964.000
15.83112 901.000
15.87168 924.000
15.91224 1182.000
15.95280 1528.000
15.99336 2586.000
16.03392 3944.000
16.07448 5350.000
16.11504 5583.000
16.15560 4303.000
16.19616 2661.000
16.23672 1676.000
16.27729 1311.000
16.31785 1420.000
16.35841 1566.000
16.39897 1965.000
16.43953 2234.000
16.48009 2065.000
16.52065 1819.000
16.56121 1967.000
16.60177 2783.000
16.64233 3974.000
16.68289 4583.000
16.72345 4638.000
16.76401 3353.000
16.80457 2208.000
16.84513 1524.000
16.88569 1239.000
16.92625 1015.000
16.96681 901.000
17.00737 900.000
17.04793 1015.000
17.08849 1077.000
17.12905 1278.000
17.16961 1543.000
17.21017 1838.000
17.25073 2610.000
17.29129 4003.000
17.33185 5578.000
17.37241 6191.000
17.41297 5146.000
17.45353 3346.000
17.49409 2115.000
17.53465 1539.000
17.57521 1378.000
17.61577 1704.000
17.65633 2467.000
17.69689 4211.000
17.73745 7132.000
17.77801 9436.000
17.81857 8504.000
17.85913 5585.000
17.89969 3198.000
17.94025 2282.000
17.98081 2016.000
18.02137 1803.000
18.06193 1720.000
18.10249 1692.000
18.14305 2021.000
18.18362 2157.000
18.22418 2820.000
18.26474 4236.000
18.30530 6038.000
18.34586 8043.000
18.38642 9548.000
18.42698 9113.000
18.46754 6663.000
18.50810 3934.000
18.54866 2251.000
18.58922 1693.000
18.62978 1396.000
18.67034 1374.000
18.71090 1432.000
18.75146 1546.000
18.79202 1916.000
18.83258 2597.000
18.87314 3673.000
18.91370 4622.000
18.95426 4551.000
18.99482 3802.000
19.03538 2990.000
19.07594 2385.000
19.11650 1942.000
19.15706 1479.000
19.19762 1267.000
19.23818 1341.000
19.27874 1570.000
19.31930 1794.000
19.35986 1848.000
19.40042 2350.000
19.44098 3120.000
19.48154 3987.000
19.52210 4434.000
19.56266 4188.000
19.60322 3192.000
19.64378 2661.000
19.68434 2480.000
19.72490 3312.000
19.76546 3944.000
19.80602 4199.000
19.84658 3861.000
19.88714 3289.000
19.92770 3284.000
19.96826 4472.000
20.00882 5947.000
20.04938 7246.000
20.08995 6727.000
20.13051 5101.000
20.17107 3689.000
20.21163 2798.000
20.25219 2413.000
20.29275 2498.000
20.33331 2809.000
20.37387 2940.000
20.41443 2683.000
20.45499 2194.000
20.49555 2156.000
20.53611 2674.000
20.57667 3926.000
20.61723 5301.000
20.65779 5767.000
20.69835 4858.000
20.73891 3240.000
20.77947 2098.000
20.82003 1601.000
20.86059 1484.000
20.90115 1639.000
20.94171 1601.000
20.98227 1595.000
21.02283 1461.000
21.06339 1312.000
21.10395 1215.000
21.14451 1275.000
21.18507 1308.000
21.22563 1572.000
21.26619 1796.000
21.30675 2047.000
21.34731 2297.000
21.38787 2978.000
21.42843 3865.000
21.46899 4750.000
21.50955 5058.000
21.55011 4990.000
21.59067 5253.000
21.63123 6696.000
21.67179 8407.000
21.71235 9068.000
21.75291 7379.000
21.79347 5017.000
21.83403 3112.000
21.87459 2072.000
21.91515 1727.000
21.95571 1728.000
21.99628 1667.000
22.03684 1877.000
22.07740 2138.000
22.11796 2572.000
22.15852 3417.000
22.19908 3919.000
22.23964 3690.000
22.28020 2841.000
22.32076 2015.000
22.36132 1484.000
22.40188 1221.000
22.44244 1176.000
22.48300 1176.000
22.52356 1401.000
22.56412 1497.000
22.60468 1532.000
22.64524 1658.000
22.68580 1825.000
22.72636 2212.000
22.76692 2517.000
22.80748 2287.000
22.84804 1955.000
22.88860 1508.000
22.92916 1300.000
22.96972 1206.000
23.01028 1179.000
23.05084 1289.000
23.09140 1326.000
23.13196 1310.000
23.17252 1124.000
23.21308 1036.000
23.25364 1012.000
23.29420 1045.000
23.33476 1347.000
23.37532 1703.000
23.41588 2146.000
23.45644 2413.000
23.49700 2468.000
23.53756 2107.000
23.57812 1703.000
23.61868 1569.000
23.65924 1535.000
23.69980 1685.000
23.74036 1573.000
23.78092 1426.000
23.82148 1338.000
23.86204 1348.000
23.90261 1457.000
23.94317 1680.000
23.98373 1814.000
24.02429 1898.000
24.06485 1988.000
24.10541 1927.000
24.14597 2004.000
24.18653 2124.000
24.22709 2095.000
24.26765 1838.000
24.30821 1501.000
24.34877 1269.000
24.38933 1464.000
24.42989 1660.000
24.47045 1601.000
24.51101 1449.000
24.55157 1333.000
24.59213 1136.000
24.63269 1185.000
24.67325 1355.000
24.71381 1644.000
24.75437 1969.000
24.79493 2159.000
24.83549 1976.000
24.87605 1672.000
24.91661 1595.000
24.95717 1271.000
24.99773 1104.000
25.03829 986.000
25.07885 995.000
25.11941 1090.000
25.15997 1272.000
25.20053 1512.000
25.24109 2039.000
25.28165 2879.000
25.32221 3628.000
25.36277 3984.000
25.40333 3771.000
25.44389 3165.000
25.48445 2575.000
25.52501 2129.000
25.56557 1608.000
25.60613 1297.000
25.64669 1136.000
25.68725 1163.000
25.72781 1376.000
25.76837 1666.000
25.80893 1923.000
25.84950 1996.000
25.89006 1757.000
25.93062 1553.000
25.97118 1376.000
26.01174 1525.000
26.05230 1863.000
26.09286 2149.000
26.13342 2576.000
26.17398 2615.000
26.21454 2129.000
26.25510 1938.000
26.29566 1793.000
26.33622 1817.000
26.37678 1942.000
26.41734 1793.000
26.45790 1796.000
26.49846 1906.000
26.53902 1929.000
26.57958 1520.000
26.62014 1304.000
26.66070 1062.000
26.70126 1008.000
26.74182 865.000
26.78238 865.000
26.82294 944.000
26.86350 1104.000
26.90406 1324.000
26.94462 1486.000
26.98518 1440.000
27.02574 1198.000
27.06630 942.000
27.10686 848.000
27.14742 820.000
27.18798 816.000
27.22854 773.000
27.26910 815.000
27.30966 849.000
27.35022 859.000
27.39078 841.000
27.43134 908.000
27.47190 946.000
27.51246 1009.000
27.55302 1088.000
27.59358 1047.000
27.63414 914.000
27.67470 743.000
27.71526 724.000
27.75583 658.000
27.79639 634.000
27.83695 660.000
27.87751 602.000
27.91807 643.000
27.95863 746.000
27.99919 745.000
28.03975 682.000
28.08031 681.000
28.12087 642.000
28.16143 621.000
28.20199 632.000
28.24255 624.000
28.28311 679.000
28.32367 711.000
28.36423 826.000
28.40479 903.000
28.44535 1106.000
28.48591 1383.000
28.52647 1829.000
28.56703 2210.000
28.60759 2433.000
28.64815 2329.000
28.68871 2074.000
28.72927 1871.000
28.76983 1731.000
28.81039 1559.000
28.85095 1388.000
28.89151 1104.000
28.93207 926.000
28.97263 714.000
29.01319 704.000
29.05375 706.000
29.09431 677.000
29.13487 776.000
29.17543 791.000
29.21599 747.000
29.25655 775.000
29.29711 755.000
29.33767 742.000
29.37823 677.000
29.41879 667.000
29.45935 625.000
29.49991 648.000
29.54047 687.000
29.58103 760.000
29.62159 849.000
29.66216 911.000
29.70272 1096.000
29.74328 1386.000
29.78384 1558.000
29.82440 1852.000
29.86496 1876.000
29.90552 1708.000
29.94608 1538.000
29.98664 1493.000
30.02720 1533.000
30.06776 1664.000
30.10832 1523.000
30.14888 1546.000
30.18944 1445.000
30.23000 1334.000
30.27056 1284.000
30.31112 1094.000
30.35168 1117.000
30.39224 1004.000
30.43280 943.000
30.47336 870.000
30.51392 772.000
30.55448 683.000
30.59504 648.000
30.63560 597.000
30.67616 666.000
30.71672 681.000
30.75728 687.000
30.79784 741.000
30.83840 788.000
30.87896 836.000
30.91952 855.000
30.96008 864.000
31.00064 883.000
31.04120 868.000
31.08176 812.000
31.12232 816.000
31.16288 816.000
31.20344 901.000
31.24400 881.000
31.28456 1027.000
31.32512 1124.000
31.36568 1177.000
31.40624 1142.000
31.44680 1202.000
31.48736 1066.000
31.52792 1271.000
31.56849 1353.000
31.60905 1611.000
31.64961 1770.000
31.69017 1918.000
31.73073 1756.000
31.77129 1597.000
31.81185 1337.000
31.85241 1192.000
31.89297 1088.000
31.93353 1057.000
31.97409 1125.000
32.01465 1125.000
32.05521 1254.000
32.09577 1337.000
32.13633 1146.000
32.17689 1031.000
32.21745 821.000
32.25801 814.000
32.29857 751.000
32.33913 703.000
32.37969 806.000
32.42025 821.000
32.46081 869.000
32.50137 789.000
32.54193 721.000
32.58249 670.000
32.62305 657.000
32.66361 708.000
32.70417 667.000
32.74473 656.000
32.78529 639.000
32.82585 673.000
32.86641 620.000
32.90697 606.000
32.94753 641.000
32.98809 668.000
33.02865 679.000
33.06921 761.000
33.10977 849.000
33.15033 903.000
33.19089 1040.000
33.23145 889.000
33.27201 850.000
33.31257 788.000
33.35313 733.000
33.39369 681.000
33.43425 721.000
33.47482 685.000
33.51538 765.000
33.55594 748.000
33.59650 784.000
33.63706 883.000
33.67762 978.000
33.71818 1000.000
33.75874 949.000
33.79930 813.000
33.83986 772.000
33.88042 725.000
33.92098 657.000
33.96154 627.000
34.00210 631.000
34.04266 543.000
34.08322 593.000
34.12378 608.000
34.16434 602.000
34.20490 617.000
34.24546 641.000
34.28602 596.000
34.32658 535.000
34.36714 533.000
34.40770 489.000
34.44826 547.000
34.48882 524.000
34.52938 584.000
34.56994 596.000
34.61050 606.000
34.65106 605.000
34.69162 660.000
34.73218 693.000
34.77274 711.000
34.81330 751.000
34.85386 764.000
34.89442 793.000
34.93498 945.000
34.97554 991.000
35.01610 1111.000
35.05666 1152.000
35.09722 1175.000
35.13778 1124.000
35.17834 1122.000
35.21890 997.000
35.25946 1021.000
35.30002 1094.000
35.34058 1127.000
35.38115 994.000
35.42171 947.000
35.46227 802.000
35.50283 671.000
35.54339 620.000
35.58395 607.000
35.62451 618.000
35.66507 636.000
35.70563 598.000
35.74619 541.000
35.78675 600.000
35.82731 555.000
35.86787 661.000
35.90843 676.000
35.94899 716.000
35.98955 743.000
36.03011 777.000
36.07067 773.000
36.11123 869.000
36.15179 1001.000
36.19235 1194.000
36.23291 1250.000
36.27347 1276.000
36.31403 1221.000
36.35459 1196.000
36.39515 1089.000
36.43571 905.000
36.47627 889.000
36.51683 839.000
36.55739 742.000
36.59795 662.000
36.63851 764.000
36.67907 724.000
36.71963 693.000
36.76019 672.000
36.80075 736.000
36.84131 660.000
36.88187 602.000
36.92243 582.000
36.96299 589.000
37.00355 519.000
37.04411 557.000
37.08467 610.000
37.12523 588.000
37.16579 616.000
37.20635 793.000
37.24691 815.000
37.28748 833.000
37.32804 898.000
37.36860 853.000
37.40916 768.000
37.44972 687.000
37.49028 645.000
37.53084 641.000
37.57140 544.000
37.61196 567.000
37.65252 558.000
37.69308 520.000
37.73364 536.000
37.77420 564.000
37.81476 567.000
37.85532 628.000
37.89588 700.000
37.93644 702.000
37.97700 740.000
38.01756 765.000
38.05812 802.000
38.09868 729.000
38.13924 704.000
38.17980 660.000
38.22036 657.000
38.26092 732.000
38.30148 768.000
38.34204 813.000
38.38260 803.000
38.42316 831.000
38.46372 816.000
38.50428 847.000
38.54484 799.000
38.58540 686.000
38.62596 750.000
38.66652 637.000
38.70708 638.000
38.74764 662.000
38.78820 698.000
38.82876 670.000
38.86932 716.000
38.90988 691.000
38.95044 847.000
38.99100 909.000
39.03156 914.000
39.07212 1068.000
39.11268 978.000
39.15324 932.000
39.19381 867.000
39.23437 761.000
39.27493 729.000
39.31549 662.000
39.35605 653.000
39.39661 637.000
39.43717 651.000
39.47773 676.000
39.51829 732.000
39.55885 680.000
39.59941 746.000
39.63997 771.000
39.68053 711.000
39.72109 727.000
39.76165 714.000
39.80221 642.000
39.84277 688.000
39.88333 657.000
39.92389 709.000
39.96445 646.000
40.00501 694.000
40.04557 694.000
40.08613 682.000
40.12669 696.000
40.16725 739.000
40.20781 680.000
40.24837 685.000
40.28893 740.000
40.32949 752.000
40.37005 825.000
40.41061 876.000
40.45117 918.000
40.49173 1058.000
40.53229 1110.000
40.57285 1178.000
40.61341 1121.000
40.65397 1115.000
40.69453 1040.000
40.73509 907.000
40.77565 778.000
40.81621 738.000
40.85677 686.000
40.89733 623.000
40.93789 644.000
40.97845 607.000
41.01901 648.000
41.05957 652.000
41.10014 638.000
41.14070 621.000
41.18126 658.000
41.22182 618.000
41.26238 671.000
41.30294 686.000
41.34350 676.000
41.38406 657.000
41.42462 653.000
41.46518 599.000
41.50574 582.000
41.54630 561.000
41.58686 516.000
41.62742 521.000
41.66798 548.000
41.70854 572.000
41.74910 589.000
41.78966 651.000
41.83022 600.000
41.87078 576.000
41.91134 546.000
41.95190 535.000
41.99246 523.000
42.03302 484.000
42.07358 504.000
42.11414 461.000
42.15470 490.000
42.19526 483.000
42.23582 515.000
42.27638 541.000
42.31694 535.000
42.35750 504.000
42.39806 552.000
42.43862 599.000
42.47918 615.000
42.51974 649.000
42.56030 697.000
42.60086 649.000
42.64142 692.000
42.68198 616.000
42.72254 624.000
42.76310 613.000
42.80366 610.000
42.84422 577.000
42.88478 556.000
42.92534 546.000
42.96590 577.000
43.00647 555.000
43.04703 599.000
43.08759 658.000
43.12815 652.000
43.16871 723.000
43.20927 717.000
43.24983 689.000
43.29039 707.000
43.33095 696.000
43.37151 706.000
43.41207 636.000
43.45263 612.000
43.49319 675.000
43.53375 610.000
43.57431 698.000
43.61487 643.000
43.65543 687.000
43.69599 651.000
43.73655 673.000
43.77711 679.000
43.81767 691.000
43.85823 675.000
43.89879 610.000
43.93935 686.000
43.97991 637.000
44.02047 617.000
44.06103 671.000
44.10159 610.000
44.14215 617.000
44.18271 586.000
44.22327 644.000
44.26383 619.000
44.30439 684.000
44.34495 742.000
44.38551 769.000
44.42607 836.000
44.46663 834.000
44.50719 884.000
44.54775 871.000
44.58831 871.000
44.62887 838.000
44.66943 831.000
44.70999 821.000
44.75055 795.000
44.79111 800.000
44.83167 768.000
44.87223 746.000
44.91280 681.000
44.95336 723.000
44.99392 669.000
45.03448 626.000
45.07504 652.000
45.11560 641.000
45.15616 697.000
45.19672 685.000
45.23728 617.000
45.27784 616.000
45.31840 683.000
45.35896 655.000
45.39952 629.000
45.44008 626.000
45.48064 675.000
45.52120 653.000
45.56176 713.000
45.60232 675.000
45.64288 652.000
45.68344 678.000
45.72400 618.000
45.76456 615.000
45.80512 580.000
45.84568 553.000
45.88624 606.000
45.92680 548.000
45.96736 580.000
46.00792 556.000
46.04848 555.000
46.08904 610.000
46.12960 600.000
46.17016 610.000
46.21072 662.000
46.25128 631.000
46.29184 664.000
46.33240 680.000
46.37296 682.000
46.41352 731.000
46.45408 709.000
46.49464 738.000
46.53520 736.000
46.57576 751.000
46.61632 738.000
46.65688 776.000
46.69744 739.000
46.73800 700.000
46.77856 618.000
46.81913 630.000
46.85969 572.000
46.90025 531.000
46.94081 603.000
46.98137 537.000
47.02193 607.000
47.06249 612.000
47.10305 616.000
47.14361 573.000
47.18417 603.000
47.22473 587.000
47.26529 613.000
47.30585 601.000
47.34641 628.000
47.38697 561.000
47.42753 598.000
47.46809 625.000
47.50865 658.000
47.54921 667.000
47.58977 652.000
47.63033 590.000
47.67089 625.000
47.71145 582.000
47.75201 594.000
47.79257 589.000
47.83313 586.000
47.87369 588.000
47.91425 635.000
47.95481 632.000
47.99537 656.000
48.03593 654.000
48.07649 608.000
48.11705 624.000
48.15761 634.000
48.19817 600.000
48.23873 577.000
48.27929 590.000
48.31985 588.000
48.36041 591.000
48.40097 585.000
48.44153 583.000
48.48209 627.000
48.52265 561.000
48.56321 516.000
48.60377 562.000
48.64433 535.000
48.68489 517.000
48.72546 507.000
48.76602 494.000
48.80658 608.000
48.84714 552.000
48.88770 547.000
48.92826 616.000
48.96882 613.000
49.00938 576.000
49.04994 635.000
49.09050 598.000
49.13106 612.000
49.17162 541.000
49.21218 622.000
49.25274 558.000
49.29330 547.000
49.33386 592.000
49.37442 537.000
49.41498 584.000
49.45554 548.000
49.49610 499.000
49.53666 503.000
49.57722 512.000
49.61778 481.000
49.65834 467.000
49.69890 541.000
49.73946 533.000
49.78002 471.000
49.82058 561.000
49.86114 552.000
49.90170 490.000
49.94226 583.000
49.98282 550.000
50.00310 565.000