File: Task01/nick/files/ESI_material_XRD/kinetics/crystal_size_analysis/50ul IPA/RVR_IPA_45m.xy
5.00155 904.000
5.05630 850.000
5.11106 808.000
5.16581 788.000
5.22057 734.000
5.27533 725.000
5.33008 743.000
5.38484 706.000
5.43960 662.000
5.49435 621.000
5.54911 676.000
5.60387 630.000
5.65862 673.000
5.71338 614.000
5.76813 582.000
5.82289 532.000
5.87765 538.000
5.93240 529.000
5.98716 504.000
6.04192 480.000
6.09667 495.000
6.15143 515.000
6.20618 515.000
6.26094 591.000
6.31570 627.000
6.37045 828.000
6.42521 913.000
6.47997 649.000
6.53472 503.000
6.58948 443.000
6.64423 454.000
6.69899 428.000
6.75375 431.000
6.80850 425.000
6.86326 470.000
6.91802 423.000
6.97277 410.000
7.02753 406.000
7.08228 438.000
7.13704 380.000
7.19180 401.000
7.24655 370.000
7.30131 411.000
7.35607 354.000
7.41082 338.000
7.46558 375.000
7.52034 375.000
7.57509 357.000
7.62985 334.000
7.68460 354.000
7.73936 370.000
7.79412 346.000
7.84887 391.000
7.90363 394.000
7.95839 365.000
8.01314 347.000
8.06790 381.000
8.12265 410.000
8.17741 382.000
8.23217 347.000
8.28692 396.000
8.34168 506.000
8.39644 615.000
8.45119 848.000
8.50595 1649.000
8.56070 3690.000
8.61546 6922.000
8.67022 5371.000
8.72497 1437.000
8.77973 678.000
8.83449 583.000
8.88924 466.000
8.94400 464.000
8.99875 463.000
9.05351 437.000
9.10827 408.000
9.16302 453.000
9.21778 470.000
9.27254 512.000
9.32729 679.000
9.38205 1224.000
9.43681 2468.000
9.49156 3066.000
9.54632 1392.000
9.60107 690.000
9.65583 668.000
9.71059 1022.000
9.76534 1767.000
9.82010 3298.000
9.87486 3351.000
9.92961 1175.000
9.98437 570.000
10.03912 587.000
10.09388 465.000
10.14864 381.000
10.20339 417.000
10.25815 361.000
10.31291 414.000
10.36766 440.000
10.42242 441.000
10.47717 419.000
10.53193 362.000
10.58669 398.000
10.64144 401.000
10.69620 421.000
10.75096 501.000
10.80571 665.000
10.86047 1168.000
10.91522 1817.000
10.96998 1493.000
11.02474 613.000
11.07949 447.000
11.13425 371.000
11.18901 360.000
11.24376 349.000
11.29852 369.000
11.35328 328.000
11.40803 364.000
11.46279 334.000
11.51754 321.000
11.57230 334.000
11.62706 342.000
11.68181 350.000
11.73657 327.000
11.79133 359.000
11.84608 317.000
11.90084 288.000
11.95559 366.000
12.01035 364.000
12.06511 328.000
12.11986 324.000
12.17462 353.000
12.22938 338.000
12.28413 380.000
12.33889 383.000
12.39364 386.000
12.44840 338.000
12.50316 332.000
12.55791 301.000
12.61267 332.000
12.66743 316.000
12.72218 341.000
12.77694 349.000
12.83170 357.000
12.88645 451.000
12.94121 443.000
12.99596 464.000
13.05072 421.000
13.10548 445.000
13.16023 490.000
13.21499 698.000
13.26975 799.000
13.32450 518.000
13.37926 447.000
13.43401 458.000
13.48877 546.000
13.54353 711.000
13.59828 1085.000
13.65304 1764.000
13.70780 2176.000
13.76255 2227.000
13.81731 2318.000
13.87206 907.000
13.92682 469.000
13.98158 452.000
14.03633 399.000
14.09109 426.000
14.14585 398.000
14.20060 359.000
14.25536 356.000
14.31011 365.000
14.36487 340.000
14.41963 385.000
14.47438 380.000
14.52914 354.000
14.58390 405.000
14.63865 401.000
14.69341 460.000
14.74817 473.000
14.80292 585.000
14.85768 847.000
14.91243 770.000
14.96719 423.000
15.02195 434.000
15.07670 433.000
15.13146 393.000
15.18622 381.000
15.24097 373.000
15.29573 431.000
15.35048 425.000
15.40524 417.000
15.46000 509.000
15.51475 608.000
15.56951 839.000
15.62427 898.000
15.67902 753.000
15.73378 658.000
15.78853 627.000
15.84329 642.000
15.89805 882.000
15.95280 1530.000
16.00756 2879.000
16.06232 4439.000
16.11707 2803.000
16.17183 1049.000
16.22658 709.000
16.28134 736.000
16.33610 1008.000
16.39085 1278.000
16.44561 1206.000
16.50037 1088.000
16.55512 1536.000
16.60988 2470.000
16.66464 3398.000
16.71939 1978.000
16.77415 827.000
16.82890 680.000
16.88366 647.000
16.93842 584.000
16.99317 628.000
17.04793 703.000
17.10269 829.000
17.15744 1145.000
17.21220 1702.000
17.26695 2974.000
17.32171 4076.000
17.37647 2822.000
17.43122 1263.000
17.48598 972.000
17.54074 1300.000
17.59549 1819.000
17.65025 3083.000
17.70500 4822.000
17.75976 5309.000
17.81452 2774.000
17.86927 1463.000
17.92403 1395.000
17.97879 1268.000
18.03354 1055.000
18.08830 1076.000
18.14305 1491.000
18.19781 2257.000
18.25257 3632.000
18.30732 5010.000
18.36208 6238.000
18.41684 4061.000
18.47159 1616.000
18.52635 1051.000
18.58111 957.000
18.63586 948.000
18.69062 1064.000
18.74537 1322.000
18.80013 1947.000
18.85489 2695.000
18.90964 2848.000
18.96440 2032.000
19.01916 1612.000
19.07391 1101.000
19.12867 892.000
19.18342 865.000
19.23818 1142.000
19.29294 1358.000
19.34769 1533.000
19.40245 1902.000
19.45721 2783.000
19.51196 2895.000
19.56672 1932.000
19.62147 1467.000
19.67623 1934.000
19.73099 2601.000
19.78574 2580.000
19.84050 1996.000
19.89526 2221.000
19.95001 3308.000
20.00477 4889.000
20.05952 4341.000
20.11428 2311.000
20.16904 1486.000
20.22379 1431.000
20.27855 1577.000
20.33331 1733.000
20.38806 1544.000
20.44282 1442.000
20.49758 1986.000
20.55233 2940.000
20.60709 3689.000
20.66184 2537.000
20.71660 1321.000
20.77136 980.000
20.82611 1020.000
20.88087 1213.000
20.93563 1194.000
20.99038 978.000
21.04514 911.000
21.09989 934.000
21.15465 983.000
21.20941 1168.000
21.26416 1425.000
21.31892 1588.000
21.37368 2109.000
21.42843 2844.000
21.48319 2894.000
21.53794 2761.000
21.59270 3914.000
21.64746 5579.000
21.70221 4927.000
21.75697 2495.000
21.81173 1313.000
21.86648 1081.000
21.92124 1172.000
21.97599 1309.000
22.03075 1446.000
22.08551 1842.000
22.14026 2773.000
22.19502 3306.000
22.24978 1886.000
22.30453 976.000
22.35929 858.000
22.41405 840.000
22.46880 910.000
22.52356 1042.000
22.57831 1058.000
22.63307 1198.000
22.68783 1434.000
22.74258 1675.000
22.79734 1241.000
22.85210 872.000
22.90685 767.000
22.96161 790.000
23.01636 917.000
23.07112 1002.000
23.12588 779.000
23.18063 718.000
23.23539 823.000
23.29015 923.000
23.34490 1244.000
23.39966 1602.000
23.45441 1583.000
23.50917 1252.000
23.56393 866.000
23.61868 1031.000
23.67344 1211.000
23.72820 1071.000
23.78295 909.000
23.83771 978.000
23.89246 1230.000
23.94722 1336.000
24.00198 1340.000
24.05673 1323.000
24.11149 1339.000
24.16625 1439.000
24.22100 1223.000
24.27576 958.000
24.33052 815.000
24.38527 916.000
24.44003 905.000
24.49478 835.000
24.54954 782.000
24.60430 863.000
24.65905 1082.000
24.71381 1408.000
24.76857 1357.000
24.82332 1156.000
24.87808 1025.000
24.93283 764.000
24.98759 694.000
25.04235 727.000
25.09710 857.000
25.15186 1140.000
25.20662 1504.000
25.26137 2214.000
25.31613 2835.000
25.37088 2289.000
25.42564 1631.000
25.48040 1175.000
25.53515 889.000
25.58991 751.000
25.64467 812.000
25.69942 983.000
25.75418 1263.000
25.80893 1470.000
25.86369 1144.000
25.91845 967.000
25.97320 1019.000
26.02796 1288.000
26.08272 1664.000
26.13747 1400.000
26.19223 1192.000
26.24699 1095.000
26.30174 1242.000
26.35650 1203.000
26.41125 1154.000
26.46601 1342.000
26.52077 1237.000
26.57552 892.000
26.63028 657.000
26.68504 650.000
26.73979 698.000
26.79455 709.000
26.84930 897.000
26.90406 978.000
26.95882 783.000
27.01357 638.000
27.06833 516.000
27.12309 535.000
27.17784 530.000
27.23260 531.000
27.28735 660.000
27.34211 680.000
27.39687 623.000
27.45162 663.000
27.50638 740.000
27.56114 655.000
27.61589 559.000
27.67065 498.000
27.72541 495.000
27.78016 508.000
27.83492 521.000
27.88967 548.000
27.94443 553.000
27.99919 548.000
28.05394 467.000
28.10870 448.000
28.16346 518.000
28.21821 498.000
28.27297 555.000
28.32772 629.000
28.38248 727.000
28.43724 1010.000
28.49199 1334.000
28.54675 1507.000
28.60151 1433.000
28.65626 1335.000
28.71102 1081.000
28.76577 1011.000
28.82053 746.000
28.87529 535.000
28.93004 463.000
28.98480 484.000
29.03956 499.000
29.09431 508.000
29.14907 547.000
29.20382 609.000
29.25858 574.000
29.31334 536.000
29.36809 493.000
29.42285 474.000
29.47761 480.000
29.53236 530.000
29.58712 613.000
29.64188 762.000
29.69663 930.000
29.75139 1184.000
29.80614 1335.000
29.86090 1135.000
29.91566 1022.000
29.97041 995.000
30.02517 1082.000
30.07993 1063.000
30.13468 965.000
30.18944 929.000
30.24419 768.000
30.29895 744.000
30.35371 657.000
30.40846 596.000
30.46322 468.000
30.51798 442.000
30.57273 444.000
30.62749 466.000
30.68224 499.000
30.73700 503.000
30.79176 581.000
30.84651 576.000
30.90127 670.000
30.95603 614.000
31.01078 546.000
31.06554 537.000
31.12029 573.000
31.17505 590.000
31.22981 689.000
31.28456 795.000
31.33932 883.000
31.39408 828.000
31.44883 797.000
31.50359 890.000
31.55835 1146.000
31.61310 1247.000
31.66786 1284.000
31.72261 1039.000
31.77737 864.000
31.83213 782.000
31.88688 724.000
31.94164 740.000
31.99640 850.000
32.05115 858.000
32.10591 749.000
32.16066 650.000
32.21542 559.000
32.27018 527.000
32.32493 582.000
32.37969 615.000
32.43445 573.000
32.48920 489.000
32.54396 460.000
32.59871 497.000
32.65347 492.000
32.70823 422.000
32.76298 456.000
32.81774 451.000
32.87250 438.000
32.92725 479.000
32.98201 532.000
33.03676 546.000
33.09152 672.000
33.14628 689.000
33.20103 650.000
33.25579 581.000
33.31055 497.000
33.36530 497.000
33.42006 497.000
33.47482 540.000
33.52957 575.000
33.58433 609.000
33.63908 746.000
33.69384 684.000
33.74860 596.000
33.80335 500.000
33.85811 444.000
33.91287 438.000
33.96762 460.000
34.02238 478.000
34.07713 434.000
34.13189 442.000
34.18665 436.000
34.24140 439.000
34.29616 417.000
34.35092 415.000
34.40567 383.000
34.46043 398.000
34.51518 394.000
34.56994 432.000
34.62470 450.000
34.67945 508.000
34.73421 466.000
34.78897 573.000
34.84372 614.000
34.89848 632.000
34.95323 728.000
35.00799 820.000
35.06275 883.000
35.11750 767.000
35.17226 661.000
35.22702 745.000
35.28177 822.000
35.33653 797.000
35.39129 649.000
35.44604 538.000
35.50080 457.000
35.55555 424.000
35.61031 446.000
35.66507 411.000
35.71982 382.000
35.77458 411.000
35.82934 510.000
35.88409 530.000
35.93885 593.000
35.99360 536.000
36.04836 654.000
36.10312 780.000
36.15787 854.000
36.21263 877.000
36.26739 884.000
36.32214 779.000
36.37690 700.000
36.43165 651.000
36.48641 501.000
36.54117 479.000
36.59592 493.000
36.65068 509.000
36.70544 492.000
36.76019 466.000
36.81495 466.000
36.86970 412.000
36.92446 445.000
36.97922 421.000
37.03397 460.000
37.08873 496.000
37.14349 500.000
37.19824 548.000
37.25300 631.000
37.30776 585.000
37.36251 520.000
37.41727 527.000
37.47202 424.000
37.52678 387.000
37.58154 407.000
37.63629 404.000
37.69105 422.000
37.74581 419.000
37.80056 461.000
37.85532 517.000
37.91007 525.000
37.96483 585.000
38.01959 561.000
38.07434 524.000
38.12910 471.000
38.18386 495.000
38.23861 549.000
38.29337 599.000
38.34812 652.000
38.40288 637.000
38.45764 574.000
38.51239 582.000
38.56715 518.000
38.62191 497.000
38.67666 507.000
38.73142 465.000
38.78617 517.000
38.84093 531.000
38.89569 610.000
38.95044 639.000
39.00520 775.000
39.05996 750.000
39.11471 648.000
39.16947 582.000
39.22423 491.000
39.27898 514.000
39.33374 444.000
39.38849 500.000
39.44325 514.000
39.49801 518.000
39.55276 517.000
39.60752 537.000
39.66228 455.000
39.71703 437.000
39.77179 461.000
39.82654 499.000
39.88130 504.000
39.93606 504.000
39.99081 528.000
40.04557 530.000
40.10033 522.000
40.15508 533.000
40.20984 525.000
40.26459 543.000
40.31935 559.000
40.37411 599.000
40.42886 740.000
40.48362 791.000
40.53838 818.000
40.59313 824.000
40.64789 711.000
40.70265 628.000
40.75740 547.000
40.81216 487.000
40.86691 481.000
40.92167 485.000
40.97643 455.000
41.03118 429.000
41.08594 498.000
41.14070 477.000
41.19545 502.000
41.25021 492.000
41.30496 468.000
41.35972 484.000
41.41448 402.000
41.46923 419.000
41.52399 403.000
41.57875 390.000
41.63350 368.000
41.68826 411.000
41.74301 467.000
41.79777 442.000
41.85253 426.000
41.90728 404.000
41.96204 363.000
42.01680 371.000
42.07155 421.000
42.12631 381.000
42.18106 400.000
42.23582 414.000
42.29058 420.000
42.34533 429.000
42.40009 419.000
42.45485 505.000
42.50960 506.000
42.56436 502.000
42.61912 496.000
42.67387 488.000
42.72863 474.000
42.78338 395.000
42.83814 405.000
42.89290 402.000
42.94765 451.000
43.00241 445.000
43.05717 467.000
43.11192 505.000
43.16668 514.000
43.22143 555.000
43.27619 464.000
43.33095 496.000
43.38570 428.000
43.44046 466.000
43.49522 500.000
43.54997 493.000
43.60473 461.000
43.65948 520.000
43.71424 482.000
43.76900 516.000
43.82375 488.000
43.87851 461.000
43.93327 461.000
43.98802 484.000
44.04278 437.000
44.09753 463.000
44.15229 453.000
44.20705 533.000
44.26180 531.000
44.31656 548.000
44.37132 593.000
44.42607 599.000
44.48083 659.000
44.53559 634.000
44.59034 578.000
44.64510 604.000
44.69985 568.000
44.75461 548.000
44.80937 549.000
44.86412 514.000
44.91888 493.000
44.97364 457.000
45.02839 481.000
45.08315 474.000
45.13790 479.000
45.19266 481.000
45.24742 448.000
45.30217 503.000
45.35693 486.000
45.41169 498.000
45.46644 537.000
45.52120 514.000
45.57595 543.000
45.63071 481.000
45.68547 426.000
45.74022 469.000
45.79498 484.000
45.84974 441.000
45.90449 477.000
45.95925 430.000
46.01400 446.000
46.06876 426.000
46.12352 477.000
46.17827 487.000
46.23303 494.000
46.28779 516.000
46.34254 543.000
46.39730 521.000
46.45206 538.000
46.50681 521.000
46.56157 571.000
46.61632 567.000
46.67108 494.000
46.72584 513.000
46.78059 485.000
46.83535 471.000
46.89011 441.000
46.94486 470.000
46.99962 482.000
47.05437 482.000
47.10913 436.000
47.16389 424.000
47.21864 410.000
47.27340 441.000
47.32816 470.000
47.38291 433.000
47.43767 464.000
47.49242 461.000
47.54718 463.000
47.60194 450.000
47.65669 470.000
47.71145 461.000
47.76621 453.000
47.82096 424.000
47.87572 442.000
47.93047 488.000
47.98523 488.000
48.03999 491.000
48.09474 450.000
48.14950 467.000
48.20426 418.000
48.25901 437.000
48.31377 417.000
48.36853 451.000
48.42328 434.000
48.47804 459.000
48.53279 442.000
48.58755 424.000
48.64231 429.000
48.69706 400.000
48.75182 363.000
48.80658 437.000
48.86133 475.000
48.91609 443.000
48.97084 459.000
49.02560 421.000
49.08036 437.000
49.13511 450.000
49.18987 430.000
49.24463 417.000
49.29938 388.000
49.35414 421.000
49.40889 408.000
49.46365 425.000
49.51841 395.000
49.57316 402.000
49.62792 392.000
49.68268 407.000
49.73743 379.000
49.79219 387.000
49.84694 398.000
49.90170 415.000
49.95646 373.000
50.01121 383.000
50.06597 364.000
50.12073 397.000
50.17548 383.000
50.23024 344.000
50.28500 336.000
50.33975 369.000
50.39451 338.000
50.44926 375.000
50.50402 406.000
50.55878 374.000
50.61353 426.000
50.66829 449.000
50.72305 424.000
50.77780 438.000
50.83256 449.000
50.88731 395.000
50.94207 368.000
50.99683 347.000
51.05158 342.000
51.10634 353.000
51.16110 324.000
51.21585 342.000
51.27061 401.000
51.32536 327.000
51.38012 363.000
51.43488 387.000
51.48963 395.000
51.54439 368.000
51.59915 384.000
51.65390 420.000
51.70866 378.000
51.76341 372.000
51.81817 434.000
51.87293 432.000
51.92768 373.000
51.98244 401.000
52.03720 374.000
52.09195 382.000
52.14671 398.000
52.20147 425.000
52.25622 423.000
52.31098 426.000
52.36573 397.000
52.42049 472.000
52.47525 396.000
52.53000 417.000
52.58476 389.000
52.63952 409.000
52.69427 423.000
52.74903 375.000
52.80378 378.000
52.85854 408.000
52.91330 421.000
52.96805 405.000
53.02281 397.000
53.07757 381.000
53.13232 414.000
53.18708 357.000
53.24183 379.000
53.29659 367.000
53.35135 356.000
53.40610 397.000
53.46086 352.000
53.51562 372.000
53.57037 343.000
53.62513 358.000
53.67989 375.000
53.73464 387.000
53.78940 368.000
53.84415 405.000
53.89891 366.000
53.95367 346.000
54.00842 347.000
54.06318 356.000
54.11794 341.000
54.17269 321.000
54.22745 360.000
54.28220 378.000
54.33696 362.000
54.39172 373.000
54.44647 350.000
54.50123 394.000
54.55599 383.000
54.61074 401.000
54.66550 348.000
54.72025 392.000
54.77501 325.000
54.82977 372.000
54.88452 351.000
54.93928 391.000
54.99404 353.000
55.04879 361.000
55.10355 364.000
55.15830 341.000
55.21306 330.000
55.26782 336.000
55.32257 369.000
55.37733 314.000
55.43209 365.000
55.48684 333.000
55.54160 359.000
55.59636 287.000
55.65111 328.000
55.70587 317.000
55.76062 367.000
55.81538 324.000
55.87014 283.000
55.92489 308.000
55.97965 330.000
56.03441 297.000
56.08916 352.000
56.14392 318.000
56.19867 313.000
56.25343 303.000
56.30819 323.000
56.36294 331.000
56.41770 344.000
56.47246 334.000
56.52721 376.000
56.58197 327.000
56.63672 331.000
56.69148 365.000
56.74624 357.000
56.80099 334.000
56.85575 359.000
56.91051 330.000
56.96526 333.000
57.02002 334.000
57.07477 312.000
57.12953 369.000
57.18429 317.000
57.23904 319.000
57.29380 338.000
57.34856 322.000
57.40331 367.000
57.45807 308.000
57.51283 296.000
57.56758 315.000
57.62234 321.000
57.67709 315.000
57.73185 275.000
57.78661 322.000
57.84136 289.000
57.89612 309.000
57.95088 313.000
58.00563 302.000
58.06039 281.000
58.11514 306.000
58.16990 310.000
58.22466 301.000
58.27941 337.000
58.33417 330.000
58.38893 305.000
58.44368 318.000
58.49844 284.000
58.55319 318.000
58.60795 295.000
58.66271 306.000
58.71746 290.000
58.77222 299.000
58.82698 270.000
58.88173 327.000
58.93649 311.000
58.99124 297.000
59.04600 280.000
59.10076 301.000
59.15551 311.000
59.21027 341.000
59.26503 372.000
59.31978 298.000
59.37454 340.000
59.42930 322.000
59.48405 308.000
59.53881 332.000
59.59356 295.000
59.64832 276.000
59.70308 300.000
59.75783 294.000
59.81259 294.000
59.86735 305.000
59.92210 313.000
59.97686 275.000
60.03161 283.000
60.08637 298.000
60.14113 282.000
60.19588 289.000
60.25064 324.000
60.30540 294.000
60.36015 299.000
60.41491 311.000
60.46966 318.000
60.52442 317.000
60.57918 293.000
60.63393 277.000
60.68869 293.000
60.74345 253.000
60.79820 279.000
60.85296 273.000
60.90771 251.000
60.96247 253.000
60.99898 292.000