File: Task01/nick/files/ESI_material_XRD/steady_state/crystal_size_analysis/Volumes_EtOAc/1928_RVR_30ul_mill_EtOAc.xy
5.00155 866.000
5.04211 910.000
5.08267 852.000
5.12323 794.000
5.16379 777.000
5.20435 775.000
5.24491 805.000
5.28547 774.000
5.32603 729.000
5.36659 699.000
5.40715 716.000
5.44771 717.000
5.48827 673.000
5.52883 655.000
5.56939 675.000
5.60995 687.000
5.65051 646.000
5.69107 643.000
5.73163 621.000
5.77219 614.000
5.81275 562.000
5.85331 605.000
5.89387 653.000
5.93443 579.000
5.97499 598.000
6.01555 573.000
6.05611 531.000
6.09667 559.000
6.13723 560.000
6.17779 531.000
6.21835 583.000
6.25891 625.000
6.29947 659.000
6.34003 741.000
6.38059 818.000
6.42115 922.000
6.46171 874.000
6.50227 724.000
6.54283 608.000
6.58339 610.000
6.62395 527.000
6.66451 510.000
6.70507 520.000
6.74564 549.000
6.78620 563.000
6.82676 595.000
6.86732 601.000
6.90788 535.000
6.94844 500.000
6.98900 481.000
7.02956 490.000
7.07012 454.000
7.11068 440.000
7.15124 446.000
7.19180 399.000
7.23236 440.000
7.27292 438.000
7.31348 400.000
7.35404 427.000
7.39460 416.000
7.43516 436.000
7.47572 436.000
7.51628 447.000
7.55684 410.000
7.59740 426.000
7.63796 421.000
7.67852 463.000
7.71908 469.000
7.75964 468.000
7.80020 429.000
7.84076 431.000
7.88132 459.000
7.92188 449.000
7.96244 411.000
8.00300 452.000
8.04356 473.000
8.08412 460.000
8.12468 427.000
8.16524 492.000
8.20580 480.000
8.24636 558.000
8.28692 553.000
8.32748 626.000
8.36804 777.000
8.40860 902.000
8.44916 1103.000
8.48972 1371.000
8.53028 2023.000
8.57084 2972.000
8.61140 4208.000
8.65197 4674.000
8.69253 4030.000
8.73309 2852.000
8.77365 1750.000
8.81421 1168.000
8.85477 859.000
8.89533 749.000
8.93589 620.000
8.97645 629.000
9.01701 603.000
9.05757 565.000
9.09813 561.000
9.13869 561.000
9.17925 564.000
9.21981 629.000
9.26037 664.000
9.30093 833.000
9.34149 1029.000
9.38205 1388.000
9.42261 1938.000
9.46317 2619.000
9.50373 2931.000
9.54429 2687.000
9.58485 1837.000
9.62541 1364.000
9.66597 1084.000
9.70653 1192.000
9.74709 1581.000
9.78765 2351.000
9.82821 3263.000
9.86877 3884.000
9.90933 3695.000
9.94989 2507.000
9.99045 1465.000
10.03101 1086.000
10.07157 794.000
10.11213 731.000
10.15269 610.000
10.19325 568.000
10.23381 509.000
10.27437 483.000
10.31493 524.000
10.35549 501.000
10.39605 588.000
10.43661 578.000
10.47717 600.000
10.51773 559.000
10.55830 501.000
10.59886 539.000
10.63942 517.000
10.67998 506.000
10.72054 588.000
10.76110 644.000
10.80166 775.000
10.84222 1105.000
10.88278 1611.000
10.92334 2234.000
10.96390 2599.000
11.00446 2211.000
11.04502 1463.000
11.08558 957.000
11.12614 699.000
11.16670 579.000
11.20726 557.000
11.24782 457.000
11.28838 501.000
11.32894 416.000
11.36950 435.000
11.41006 396.000
11.45062 439.000
11.49118 473.000
11.53174 414.000
11.57230 392.000
11.61286 405.000
11.65342 417.000
11.69398 382.000
11.73454 363.000
11.77510 405.000
11.81566 427.000
11.85622 386.000
11.89678 412.000
11.93734 443.000
11.97790 372.000
12.01846 380.000
12.05902 425.000
12.09958 381.000
12.14014 384.000
12.18070 423.000
12.22126 396.000
12.26182 432.000
12.30238 455.000
12.34294 485.000
12.38350 473.000
12.42406 513.000
12.46463 415.000
12.50519 438.000
12.54575 405.000
12.58631 412.000
12.62687 417.000
12.66743 433.000
12.70799 467.000
12.74855 420.000
12.78911 391.000
12.82967 446.000
12.87023 441.000
12.91079 487.000
12.95135 562.000
12.99191 639.000
13.03247 606.000
13.07303 643.000
13.11359 623.000
13.15415 681.000
13.19471 836.000
13.23527 879.000
13.27583 941.000
13.31639 963.000
13.35695 839.000
13.39751 685.000
13.43807 649.000
13.47863 652.000
13.51919 815.000
13.55975 983.000
13.60031 1295.000
13.64087 1724.000
13.68143 2306.000
13.72199 2731.000
13.76255 2717.000
13.80311 2435.000
13.84367 2039.000
13.88423 1513.000
13.92479 1058.000
13.96535 745.000
14.00591 620.000
14.04647 614.000
14.08703 566.000
14.12759 498.000
14.16815 542.000
14.20871 482.000
14.24927 445.000
14.28983 468.000
14.33039 469.000
14.37096 498.000
14.41152 480.000
14.45208 441.000
14.49264 475.000
14.53320 507.000
14.57376 441.000
14.61432 479.000
14.65488 545.000
14.69544 553.000
14.73600 564.000
14.77656 645.000
14.81712 694.000
14.85768 775.000
14.89824 861.000
14.93880 831.000
14.97936 730.000
15.01992 591.000
15.06048 545.000
15.10104 502.000
15.14160 508.000
15.18216 522.000
15.22272 510.000
15.26328 526.000
15.30384 526.000
15.34440 536.000
15.38496 580.000
15.42552 627.000
15.46608 613.000
15.50664 703.000
15.54720 828.000
15.58776 1047.000
15.62832 1090.000
15.66888 1099.000
15.70944 1084.000
15.75000 1026.000
15.79056 946.000
15.83112 898.000
15.87168 949.000
15.91224 1116.000
15.95280 1605.000
15.99336 2170.000
16.03392 2855.000
16.07448 3446.000
16.11504 3319.000
16.15560 2489.000
16.19616 1821.000
16.23672 1335.000
16.27729 1161.000
16.31785 1239.000
16.35841 1324.000
16.39897 1479.000
16.43953 1642.000
16.48009 1614.000
16.52065 1574.000
16.56121 1760.000
16.60177 2206.000
16.64233 2833.000
16.68289 2954.000
16.72345 2786.000
16.76401 2051.000
16.80457 1497.000
16.84513 1166.000
16.88569 1032.000
16.92625 924.000
16.96681 908.000
17.00737 981.000
17.04793 1020.000
17.08849 1139.000
17.12905 1286.000
17.16961 1507.000
17.21017 2047.000
17.25073 2685.000
17.29129 3762.000
17.33185 4474.000
17.37241 4677.000
17.41297 3752.000
17.45353 2833.000
17.49409 1990.000
17.53465 1721.000
17.57521 1933.000
17.61577 2322.000
17.65633 3373.000
17.69689 4943.000
17.73745 7039.000
17.77801 8521.000
17.81857 7857.000
17.85913 5444.000
17.89969 3378.000
17.94025 2247.000
17.98081 1819.000
18.02137 1790.000
18.06193 1684.000
18.10249 1912.000
18.14305 2028.000
18.18362 2424.000
18.22418 3278.000
18.26474 4543.000
18.30530 5873.000
18.34586 7188.000
18.38642 7712.000
18.42698 7197.000
18.46754 5385.000
18.50810 3596.000
18.54866 2391.000
18.58922 1702.000
18.62978 1536.000
18.67034 1505.000
18.71090 1546.000
18.75146 1712.000
18.79202 2064.000
18.83258 2553.000
18.87314 3403.000
18.91370 3727.000
18.95426 3542.000
18.99482 3128.000
19.03538 2395.000
19.07594 1971.000
19.11650 1643.000
19.15706 1441.000
19.19762 1355.000
19.23818 1367.000
19.27874 1543.000
19.31930 1621.000
19.35986 1878.000
19.40042 2201.000
19.44098 2629.000
19.48154 3053.000
19.52210 3128.000
19.56266 2885.000
19.60322 2466.000
19.64378 2401.000
19.68434 2511.000
19.72490 3189.000
19.76546 3795.000
19.80602 3871.000
19.84658 3737.000
19.88714 3393.000
19.92770 3457.000
19.96826 3813.000
20.00882 4696.000
20.04938 4906.000
20.08995 4578.000
20.13051 3755.000
20.17107 2941.000
20.21163 2448.000
20.25219 2330.000
20.29275 2457.000
20.33331 2566.000
20.37387 2534.000
20.41443 2688.000
20.45499 2407.000
20.49555 2601.000
20.53611 3128.000
20.57667 3963.000
20.61723 4731.000
20.65779 4812.000
20.69835 4230.000
20.73891 2961.000
20.77947 2196.000
20.82003 1608.000
20.86059 1536.000
20.90115 1528.000
20.94171 1471.000
20.98227 1406.000
21.02283 1369.000
21.06339 1236.000
21.10395 1307.000
21.14451 1334.000
21.18507 1466.000
21.22563 1597.000
21.26619 1800.000
21.30675 2043.000
21.34731 2197.000
21.38787 2644.000
21.42843 3206.000
21.46899 3788.000
21.50955 3960.000
21.55011 3953.000
21.59067 4447.000
21.63123 5226.000
21.67179 5751.000
21.71235 5646.000
21.75291 4675.000
21.79347 3342.000
21.83403 2617.000
21.87459 1999.000
21.91515 1697.000
21.95571 1608.000
21.99628 1699.000
22.03684 1834.000
22.07740 1969.000
22.11796 2323.000
22.15852 2485.000
22.19908 2513.000
22.23964 2357.000
22.28020 1830.000
22.32076 1585.000
22.36132 1306.000
22.40188 1228.000
22.44244 1166.000
22.48300 1208.000
22.52356 1289.000
22.56412 1405.000
22.60468 1433.000
22.64524 1606.000
22.68580 1721.000
22.72636 1818.000
22.76692 1835.000
22.80748 1747.000
22.84804 1472.000
22.88860 1329.000
22.92916 1114.000
22.96972 1057.000
23.01028 1096.000
23.05084 1049.000
23.09140 1119.000
23.13196 1095.000
23.17252 1009.000
23.21308 947.000
23.25364 1027.000
23.29420 1058.000
23.33476 1287.000
23.37532 1508.000
23.41588 1663.000
23.45644 1750.000
23.49700 1760.000
23.53756 1410.000
23.57812 1365.000
23.61868 1320.000
23.65924 1278.000
23.69980 1265.000
23.74036 1258.000
23.78092 1188.000
23.82148 1208.000
23.86204 1292.000
23.90261 1411.000
23.94317 1515.000
23.98373 1636.000
24.02429 1629.000
24.06485 1710.000
24.10541 1716.000
24.14597 1793.000
24.18653 1674.000
24.22709 1655.000
24.26765 1409.000
24.30821 1233.000
24.34877 1249.000
24.38933 1310.000
24.42989 1273.000
24.47045 1314.000
24.51101 1242.000
24.55157 1175.000
24.59213 1193.000
24.63269 1201.000
24.67325 1278.000
24.71381 1461.000
24.75437 1527.000
24.79493 1701.000
24.83549 1579.000
24.87605 1377.000
24.91661 1288.000
24.95717 1169.000
24.99773 1062.000
25.03829 997.000
25.07885 1065.000
25.11941 1170.000
25.15997 1276.000
25.20053 1597.000
25.24109 1875.000
25.28165 2411.000
25.32221 2859.000
25.36277 2819.000
25.40333 2593.000
25.44389 2296.000
25.48445 1755.000
25.52501 1596.000
25.56557 1364.000
25.60613 1148.000
25.64669 1090.000
25.68725 1187.000
25.72781 1249.000
25.76837 1353.000
25.80893 1478.000
25.84950 1523.000
25.89006 1334.000
25.93062 1407.000
25.97118 1257.000
26.01174 1519.000
26.05230 1682.000
26.09286 1830.000
26.13342 1954.000
26.17398 1987.000
26.21454 1753.000
26.25510 1710.000
26.29566 1612.000
26.33622 1592.000
26.37678 1601.000
26.41734 1521.000
26.45790 1388.000
26.49846 1439.000
26.53902 1305.000
26.57958 1139.000
26.62014 1049.000
26.66070 947.000
26.70126 842.000
26.74182 841.000
26.78238 890.000
26.82294 924.000
26.86350 1035.000
26.90406 1152.000
26.94462 1072.000
26.98518 986.000
27.02574 908.000
27.06630 792.000
27.10686 718.000
27.14742 742.000
27.18798 695.000
27.22854 736.000
27.26910 795.000
27.30966 701.000
27.35022 788.000
27.39078 759.000
27.43134 832.000
27.47190 843.000
27.51246 902.000
27.55302 833.000
27.59358 874.000
27.63414 781.000
27.67470 651.000
27.71526 610.000
27.75583 615.000
27.79639 588.000
27.83695 644.000
27.87751 660.000
27.91807 569.000
27.95863 652.000
27.99919 643.000
28.03975 606.000
28.08031 641.000
28.12087 644.000
28.16143 586.000
28.20199 635.000
28.24255 652.000
28.28311 655.000
28.32367 737.000
28.36423 863.000
28.40479 962.000
28.44535 1157.000
28.48591 1438.000
28.52647 1666.000
28.56703 1922.000
28.60759 1996.000
28.64815 1906.000
28.68871 1753.000
28.72927 1552.000
28.76983 1537.000
28.81039 1347.000
28.85095 1118.000
28.89151 939.000
28.93207 811.000
28.97263 735.000
29.01319 638.000
29.05375 642.000
29.09431 605.000
29.13487 611.000
29.17543 628.000
29.21599 663.000
29.25655 702.000
29.29711 657.000
29.33767 644.000
29.37823 630.000
29.41879 635.000
29.45935 616.000
29.49991 646.000
29.54047 685.000
29.58103 723.000
29.62159 798.000
29.66216 931.000
29.70272 1093.000
29.74328 1184.000
29.78384 1433.000
29.82440 1485.000
29.86496 1473.000
29.90552 1433.000
29.94608 1359.000
29.98664 1303.000
30.02720 1280.000
30.06776 1372.000
30.10832 1257.000
30.14888 1201.000
30.18944 1138.000
30.23000 1154.000
30.27056 1064.000
30.31112 973.000
30.35168 868.000
30.39224 849.000
30.43280 721.000
30.47336 698.000
30.51392 646.000
30.55448 626.000
30.59504 629.000
30.63560 597.000
30.67616 649.000
30.71672 681.000
30.75728 652.000
30.79784 689.000
30.83840 714.000
30.87896 764.000
30.91952 722.000
30.96008 823.000
31.00064 734.000
31.04120 729.000
31.08176 680.000
31.12232 666.000
31.16288 762.000
31.20344 785.000
31.24400 820.000
31.28456 872.000
31.32512 1025.000
31.36568 1032.000
31.40624 1014.000
31.44680 1066.000
31.48736 1089.000
31.52792 1085.000
31.56849 1215.000
31.60905 1382.000
31.64961 1467.000
31.69017 1453.000
31.73073 1317.000
31.77129 1217.000
31.81185 1065.000
31.85241 990.000
31.89297 969.000
31.93353 939.000
31.97409 953.000
32.01465 939.000
32.05521 984.000
32.09577 959.000
32.13633 892.000
32.17689 830.000
32.21745 783.000
32.25801 728.000
32.29857 712.000
32.33913 732.000
32.37969 686.000
32.42025 744.000
32.46081 711.000
32.50137 627.000
32.54193 623.000
32.58249 607.000
32.62305 660.000
32.66361 620.000
32.70417 599.000
32.74473 627.000
32.78529 585.000
32.82585 591.000
32.86641 587.000
32.90697 562.000
32.94753 611.000
32.98809 594.000
33.02865 643.000
33.06921 720.000
33.10977 731.000
33.15033 734.000
33.19089 772.000
33.23145 685.000
33.27201 727.000
33.31257 726.000
33.35313 602.000
33.39369 670.000
33.43425 656.000
33.47482 675.000
33.51538 616.000
33.55594 667.000
33.59650 775.000
33.63706 766.000
33.67762 771.000
33.71818 772.000
33.75874 700.000
33.79930 642.000
33.83986 586.000
33.88042 611.000
33.92098 598.000
33.96154 501.000
34.00210 520.000
34.04266 550.000
34.08322 533.000
34.12378 538.000
34.16434 563.000
34.20490 537.000
34.24546 514.000
34.28602 527.000
34.32658 517.000
34.36714 492.000
34.40770 483.000
34.44826 448.000
34.48882 466.000
34.52938 540.000
34.56994 521.000
34.61050 563.000
34.65106 587.000
34.69162 572.000
34.73218 663.000
34.77274 649.000
34.81330 650.000
34.85386 713.000
34.89442 734.000
34.93498 787.000
34.97554 802.000
35.01610 857.000
35.05666 881.000
35.09722 976.000
35.13778 945.000
35.17834 799.000
35.21890 867.000
35.25946 840.000
35.30002 805.000
35.34058 785.000
35.38115 734.000
35.42171 636.000
35.46227 639.000
35.50283 607.000
35.54339 576.000
35.58395 533.000
35.62451 532.000
35.66507 553.000
35.70563 556.000
35.74619 546.000
35.78675 558.000
35.82731 587.000
35.86787 589.000
35.90843 645.000
35.94899 681.000
35.98955 718.000
36.03011 768.000
36.07067 834.000
36.11123 836.000
36.15179 914.000
36.19235 950.000
36.23291 1023.000
36.27347 946.000
36.31403 962.000
36.35459 925.000
36.39515 851.000
36.43571 739.000
36.47627 703.000
36.51683 708.000
36.55739 624.000
36.59795 599.000
36.63851 588.000
36.67907 570.000
36.71963 594.000
36.76019 579.000
36.80075 589.000
36.84131 560.000
36.88187 512.000
36.92243 493.000
36.96299 486.000
37.00355 526.000
37.04411 559.000
37.08467 587.000
37.12523 566.000
37.16579 610.000
37.20635 653.000
37.24691 689.000
37.28748 701.000
37.32804 679.000
37.36860 637.000
37.40916 648.000
37.44972 591.000
37.49028 574.000
37.53084 553.000
37.57140 532.000
37.61196 525.000
37.65252 462.000
37.69308 525.000
37.73364 519.000
37.77420 520.000
37.81476 516.000
37.85532 570.000
37.89588 589.000
37.93644 628.000
37.97700 618.000
38.01756 625.000
38.05812 617.000
38.09868 592.000
38.13924 600.000
38.17980 598.000
38.22036 666.000
38.26092 667.000
38.30148 654.000
38.34204 706.000
38.38260 693.000
38.42316 680.000
38.46372 738.000
38.50428 638.000
38.54484 676.000
38.58540 630.000
38.62596 573.000
38.66652 561.000
38.70708 626.000
38.74764 614.000
38.78820 607.000
38.82876 627.000
38.86932 666.000
38.90988 625.000
38.95044 701.000
38.99100 746.000
39.03156 793.000
39.07212 786.000
39.11268 742.000
39.15324 743.000
39.19381 670.000
39.23437 643.000
39.27493 592.000
39.31549 583.000
39.35605 600.000
39.39661 602.000
39.43717 592.000
39.47773 604.000
39.51829 636.000
39.55885 575.000
39.59941 648.000
39.63997 653.000
39.68053 624.000
39.72109 601.000
39.76165 592.000
39.80221 598.000
39.84277 563.000
39.88333 581.000
39.92389 570.000
39.96445 603.000
40.00501 631.000
40.04557 602.000
40.08613 621.000
40.12669 614.000
40.16725 567.000
40.20781 662.000
40.24837 651.000
40.28893 657.000
40.32949 638.000
40.37005 701.000
40.41061 834.000
40.45117 882.000
40.49173 814.000
40.53229 863.000
40.57285 873.000
40.61341 856.000
40.65397 886.000
40.69453 783.000
40.73509 734.000
40.77565 671.000
40.81621 647.000
40.85677 584.000
40.89733 535.000
40.93789 527.000
40.97845 532.000
41.01901 581.000
41.05957 570.000
41.10014 568.000
41.14070 593.000
41.18126 597.000
41.22182 558.000
41.26238 578.000
41.30294 562.000
41.34350 561.000
41.38406 519.000
41.42462 519.000
41.46518 514.000
41.50574 491.000
41.54630 490.000
41.58686 495.000
41.62742 532.000
41.66798 500.000
41.70854 521.000
41.74910 477.000
41.78966 497.000
41.83022 505.000
41.87078 517.000
41.91134 458.000
41.95190 463.000
41.99246 448.000
42.03302 440.000
42.07358 442.000
42.11414 411.000
42.15470 471.000
42.19526 461.000
42.23582 487.000
42.27638 487.000
42.31694 404.000
42.35750 482.000
42.39806 512.000
42.43862 531.000
42.47918 578.000
42.51974 597.000
42.56030 618.000
42.60086 582.000
42.64142 587.000
42.68198 574.000
42.72254 566.000
42.76310 512.000
42.80366 554.000
42.84422 516.000
42.88478 528.000
42.92534 495.000
42.96590 528.000
43.00647 560.000
43.04703 501.000
43.08759 543.000
43.12815 559.000
43.16871 578.000
43.20927 581.000
43.24983 609.000
43.29039 741.000
43.33095 603.000
43.37151 564.000
43.41207 644.000
43.45263 613.000
43.49319 563.000
43.53375 582.000
43.57431 531.000
43.61487 579.000
43.65543 608.000
43.69599 597.000
43.73655 592.000
43.77711 623.000
43.81767 649.000
43.85823 583.000
43.89879 588.000
43.93935 575.000
43.97991 581.000
44.02047 531.000
44.06103 549.000
44.10159 550.000
44.14215 522.000
44.18271 568.000
44.22327 544.000
44.26383 621.000
44.30439 626.000
44.34495 657.000
44.38551 634.000
44.42607 683.000
44.46663 703.000
44.50719 702.000
44.54775 693.000
44.58831 656.000
44.62887 691.000
44.66943 661.000
44.70999 650.000
44.75055 677.000
44.79111 620.000
44.83167 619.000
44.87223 606.000
44.91280 633.000
44.95336 600.000
44.99392 586.000
45.03448 567.000
45.07504 605.000
45.11560 580.000
45.15616 566.000
45.19672 594.000
45.23728 544.000
45.27784 568.000
45.31840 576.000
45.35896 544.000
45.39952 581.000
45.44008 616.000
45.48064 634.000
45.52120 612.000
45.56176 598.000
45.60232 572.000
45.64288 623.000
45.68344 542.000
45.72400 584.000
45.76456 528.000
45.80512 583.000
45.84568 528.000
45.88624 527.000
45.92680 550.000
45.96736 536.000
46.00792 519.000
46.04848 541.000
46.08904 536.000
46.12960 510.000
46.17016 552.000
46.21072 564.000
46.25128 580.000
46.29184 559.000
46.33240 574.000
46.37296 578.000
46.41352 610.000
46.45408 620.000
46.49464 596.000
46.53520 607.000
46.57576 672.000
46.61632 671.000
46.65688 633.000
46.69744 620.000
46.73800 567.000
46.77856 551.000
46.81913 543.000
46.85969 560.000
46.90025 565.000
46.94081 522.000
46.98137 529.000
47.02193 531.000
47.06249 516.000
47.10305 540.000
47.14361 535.000
47.18417 503.000
47.22473 553.000
47.26529 556.000
47.30585 547.000
47.34641 550.000
47.38697 581.000
47.42753 564.000
47.46809 539.000
47.50865 545.000
47.54921 538.000
47.58977 523.000
47.63033 536.000
47.67089 514.000
47.71145 526.000
47.75201 517.000
47.79257 537.000
47.83313 505.000
47.87369 549.000
47.91425 581.000
47.95481 549.000
47.99537 596.000
48.03593 551.000
48.07649 523.000
48.11705 516.000
48.15761 510.000
48.19817 506.000
48.23873 523.000
48.27929 511.000
48.31985 531.000
48.36041 512.000
48.40097 540.000
48.44153 488.000
48.48209 506.000
48.52265 492.000
48.56321 454.000
48.60377 488.000
48.64433 526.000
48.68489 445.000
48.72546 535.000
48.76602 499.000
48.80658 491.000
48.84714 469.000
48.88770 522.000
48.92826 527.000
48.96882 512.000
49.00938 528.000
49.04994 500.000
49.09050 498.000
49.13106 510.000
49.17162 486.000
49.21218 503.000
49.25274 541.000
49.29330 494.000
49.33386 468.000
49.37442 438.000
49.41498 470.000
49.45554 465.000
49.49610 471.000
49.53666 465.000
49.57722 459.000
49.61778 456.000
49.65834 459.000
49.69890 445.000
49.73946 474.000
49.78002 475.000
49.82058 472.000
49.86114 470.000
49.90170 469.000
49.94226 439.000
49.98282 452.000
50.00310 450.000