File: Task01/nick/files/ESI_material_XRD/steady_state/crystal_size_analysis/Volumes_EtOAc/1929_RVR_20ul_mill_EtOAc.xy
5.00155 923.000
5.04211 806.000
5.08267 827.000
5.12323 828.000
5.16379 803.000
5.20435 786.000
5.24491 787.000
5.28547 765.000
5.32603 790.000
5.36659 775.000
5.40715 672.000
5.44771 685.000
5.48827 754.000
5.52883 687.000
5.56939 676.000
5.60995 658.000
5.65051 649.000
5.69107 610.000
5.73163 627.000
5.77219 646.000
5.81275 671.000
5.85331 596.000
5.89387 569.000
5.93443 550.000
5.97499 575.000
6.01555 580.000
6.05611 640.000
6.09667 587.000
6.13723 600.000
6.17779 596.000
6.21835 563.000
6.25891 577.000
6.29947 583.000
6.34003 671.000
6.38059 635.000
6.42115 671.000
6.46171 771.000
6.50227 764.000
6.54283 910.000
6.58339 1061.000
6.62395 1388.000
6.66451 1905.000
6.70507 2778.000
6.74564 4106.000
6.78620 5173.000
6.82676 5426.000
6.86732 4381.000
6.90788 2709.000
6.94844 1440.000
6.98900 903.000
7.02956 749.000
7.07012 668.000
7.11068 671.000
7.15124 556.000
7.19180 587.000
7.23236 507.000
7.27292 498.000
7.31348 450.000
7.35404 501.000
7.39460 503.000
7.43516 484.000
7.47572 473.000
7.51628 471.000
7.55684 503.000
7.59740 458.000
7.63796 495.000
7.67852 469.000
7.71908 521.000
7.75964 509.000
7.80020 485.000
7.84076 488.000
7.88132 507.000
7.92188 518.000
7.96244 502.000
8.00300 535.000
8.04356 575.000
8.08412 735.000
8.12468 927.000
8.16524 1099.000
8.20580 1465.000
8.24636 2057.000
8.28692 3106.000
8.32748 4453.000
8.36804 5362.000
8.40860 5053.000
8.44916 3267.000
8.48972 1987.000
8.53028 1465.000
8.57084 1389.000
8.61140 1439.000
8.65197 1323.000
8.69253 1181.000
8.73309 940.000
8.77365 789.000
8.81421 621.000
8.85477 554.000
8.89533 523.000
8.93589 534.000
8.97645 566.000
9.01701 516.000
9.05757 507.000
9.09813 502.000
9.13869 498.000
9.17925 511.000
9.21981 495.000
9.26037 462.000
9.30093 529.000
9.34149 561.000
9.38205 699.000
9.42261 759.000
9.46317 888.000
9.50373 885.000
9.54429 772.000
9.58485 678.000
9.62541 603.000
9.66597 606.000
9.70653 589.000
9.74709 660.000
9.78765 882.000
9.82821 997.000
9.86877 1049.000
9.90933 984.000
9.94989 717.000
9.99045 584.000
10.03101 545.000
10.07157 516.000
10.11213 490.000
10.15269 445.000
10.19325 428.000
10.23381 459.000
10.27437 465.000
10.31493 490.000
10.35549 513.000
10.39605 518.000
10.43661 649.000
10.47717 847.000
10.51773 979.000
10.55830 1135.000
10.59886 1054.000
10.63942 774.000
10.67998 654.000
10.72054 496.000
10.76110 571.000
10.80166 540.000
10.84222 600.000
10.88278 699.000
10.92334 752.000
10.96390 788.000
11.00446 671.000
11.04502 570.000
11.08558 481.000
11.12614 458.000
11.16670 402.000
11.20726 410.000
11.24782 416.000
11.28838 386.000
11.32894 409.000
11.36950 405.000
11.41006 399.000
11.45062 415.000
11.49118 416.000
11.53174 393.000
11.57230 389.000
11.61286 378.000
11.65342 390.000
11.69398 412.000
11.73454 405.000
11.77510 400.000
11.81566 377.000
11.85622 366.000
11.89678 378.000
11.93734 375.000
11.97790 374.000
12.01846 381.000
12.05902 397.000
12.09958 376.000
12.14014 392.000
12.18070 391.000
12.22126 415.000
12.26182 391.000
12.30238 406.000
12.34294 390.000
12.38350 447.000
12.42406 426.000
12.46463 391.000
12.50519 379.000
12.54575 402.000
12.58631 397.000
12.62687 477.000
12.66743 374.000
12.70799 415.000
12.74855 427.000
12.78911 404.000
12.82967 424.000
12.87023 455.000
12.91079 426.000
12.95135 459.000
12.99191 552.000
13.03247 539.000
13.07303 618.000
13.11359 639.000
13.15415 800.000
13.19471 914.000
13.23527 941.000
13.27583 959.000
13.31639 1045.000
13.35695 1073.000
13.39751 1076.000
13.43807 1056.000
13.47863 1181.000
13.51919 1511.000
13.55975 1704.000
13.60031 1549.000
13.64087 1435.000
13.68143 1254.000
13.72199 1166.000
13.76255 1051.000
13.80311 866.000
13.84367 770.000
13.88423 644.000
13.92479 503.000
13.96535 550.000
14.00591 485.000
14.04647 439.000
14.08703 495.000
14.12759 476.000
14.16815 458.000
14.20871 465.000
14.24927 455.000
14.28983 467.000
14.33039 495.000
14.37096 478.000
14.41152 524.000
14.45208 595.000
14.49264 694.000
14.53320 809.000
14.57376 1068.000
14.61432 1517.000
14.65488 2101.000
14.69544 2085.000
14.73600 1630.000
14.77656 1191.000
14.81712 1057.000
14.85768 1205.000
14.89824 1407.000
14.93880 1381.000
14.97936 1144.000
15.01992 830.000
15.06048 589.000
15.10104 601.000
15.14160 528.000
15.18216 527.000
15.22272 491.000
15.26328 502.000
15.30384 474.000
15.34440 478.000
15.38496 522.000
15.42552 497.000
15.46608 494.000
15.50664 546.000
15.54720 555.000
15.58776 602.000
15.62832 584.000
15.66888 636.000
15.70944 593.000
15.75000 599.000
15.79056 601.000
15.83112 606.000
15.87168 621.000
15.91224 752.000
15.95280 825.000
15.99336 935.000
16.03392 1158.000
16.07448 1252.000
16.11504 1101.000
16.15560 1086.000
16.19616 1144.000
16.23672 1373.000
16.27729 1829.000
16.31785 2541.000
16.35841 3153.000
16.39897 3102.000
16.43953 2873.000
16.48009 2124.000
16.52065 1793.000
16.56121 1931.000
16.60177 2125.000
16.64233 2297.000
16.68289 2379.000
16.72345 2565.000
16.76401 2832.000
16.80457 2784.000
16.84513 2392.000
16.88569 1888.000
16.92625 1685.000
16.96681 1849.000
17.00737 2365.000
17.04793 3191.000
17.08849 4125.000
17.12905 4469.000
17.16961 3968.000
17.21017 3058.000
17.25073 2341.000
17.29129 1967.000
17.33185 1815.000
17.37241 1562.000
17.41297 1287.000
17.45353 1129.000
17.49409 1038.000
17.53465 1000.000
17.57521 1044.000
17.61577 1112.000
17.65633 1377.000
17.69689 1744.000
17.73745 2294.000
17.77801 2572.000
17.81857 2357.000
17.85913 2096.000
17.89969 1957.000
17.94025 2270.000
17.98081 3064.000
18.02137 4192.000
18.06193 5584.000
18.10249 6687.000
18.14305 6327.000
18.18362 4946.000
18.22418 3768.000
18.26474 3008.000
18.30530 2763.000
18.34586 2600.000
18.38642 2487.000
18.42698 2215.000
18.46754 2007.000
18.50810 1783.000
18.54866 1877.000
18.58922 2155.000
18.62978 2668.000
18.67034 3227.000
18.71090 3535.000
18.75146 3142.000
18.79202 2863.000
18.83258 2295.000
18.87314 1977.000
18.91370 2040.000
18.95426 1964.000
18.99482 1892.000
19.03538 1949.000
19.07594 1803.000
19.11650 1490.000
19.15706 1264.000
19.19762 1204.000
19.23818 1268.000
19.27874 1345.000
19.31930 1509.000
19.35986 1861.000
19.40042 2343.000
19.44098 2964.000
19.48154 3730.000
19.52210 4008.000
19.56266 3706.000
19.60322 3084.000
19.64378 2506.000
19.68434 2146.000
19.72490 2232.000
19.76546 2520.000
19.80602 2879.000
19.84658 3310.000
19.88714 3818.000
19.92770 4295.000
19.96826 4125.000
20.00882 3670.000
20.04938 3233.000
20.08995 2874.000
20.13051 2872.000
20.17107 3029.000
20.21163 3007.000
20.25219 3148.000
20.29275 3623.000
20.33331 4314.000
20.37387 4135.000
20.41443 3279.000
20.45499 2220.000
20.49555 1862.000
20.53611 1716.000
20.57667 1812.000
20.61723 1857.000
20.65779 1713.000
20.69835 1601.000
20.73891 1332.000
20.77947 1214.000
20.82003 1161.000
20.86059 1140.000
20.90115 1162.000
20.94171 1171.000
20.98227 1268.000
21.02283 1243.000
21.06339 1384.000
21.10395 1502.000
21.14451 1763.000
21.18507 2177.000
21.22563 2486.000
21.26619 2992.000
21.30675 4188.000
21.34731 5219.000
21.38787 6628.000
21.42843 7656.000
21.46899 8660.000
21.50955 9288.000
21.55011 9804.000
21.59067 9632.000
21.63123 9025.000
21.67179 8240.000
21.71235 6511.000
21.75291 4835.000
21.79347 3259.000
21.83403 2389.000
21.87459 1822.000
21.91515 1492.000
21.95571 1369.000
21.99628 1342.000
22.03684 1274.000
22.07740 1235.000
22.11796 1269.000
22.15852 1293.000
22.19908 1231.000
22.23964 1225.000
22.28020 1113.000
22.32076 1159.000
22.36132 1220.000
22.40188 1346.000
22.44244 1415.000
22.48300 1531.000
22.52356 1507.000
22.56412 1490.000
22.60468 1431.000
22.64524 1297.000
22.68580 1327.000
22.72636 1293.000
22.76692 1365.000
22.80748 1439.000
22.84804 1473.000
22.88860 1491.000
22.92916 1544.000
22.96972 1416.000
23.01028 1459.000
23.05084 1337.000
23.09140 1186.000
23.13196 1103.000
23.17252 1075.000
23.21308 1020.000
23.25364 1186.000
23.29420 1341.000
23.33476 1502.000
23.37532 1962.000
23.41588 2225.000
23.45644 2637.000
23.49700 3095.000
23.53756 3214.000
23.57812 3008.000
23.61868 2641.000
23.65924 2231.000
23.69980 1938.000
23.74036 1626.000
23.78092 1630.000
23.82148 1532.000
23.86204 1469.000
23.90261 1380.000
23.94317 1186.000
23.98373 1166.000
24.02429 1086.000
24.06485 1069.000
24.10541 1098.000
24.14597 1119.000
24.18653 1220.000
24.22709 1335.000
24.26765 1477.000
24.30821 1775.000
24.34877 2059.000
24.38933 2141.000
24.42989 2141.000
24.47045 1886.000
24.51101 1505.000
24.55157 1205.000
24.59213 1161.000
24.63269 1141.000
24.67325 1199.000
24.71381 1330.000
24.75437 1396.000
24.79493 1257.000
24.83549 1133.000
24.87605 1075.000
24.91661 953.000
24.95717 1014.000
24.99773 1062.000
25.03829 1150.000
25.07885 1325.000
25.11941 1561.000
25.15997 1712.000
25.20053 1878.000
25.24109 1948.000
25.28165 1885.000
25.32221 1768.000
25.36277 1818.000
25.40333 1658.000
25.44389 1590.000
25.48445 1512.000
25.52501 1318.000
25.56557 1153.000
25.60613 1055.000
25.64669 973.000
25.68725 989.000
25.72781 961.000
25.76837 915.000
25.80893 1022.000
25.84950 1132.000
25.89006 1225.000
25.93062 1367.000
25.97118 1566.000
26.01174 1658.000
26.05230 1942.000
26.09286 1865.000
26.13342 1770.000
26.17398 1602.000
26.21454 1440.000
26.25510 1302.000
26.29566 1270.000
26.33622 1252.000
26.37678 1310.000
26.41734 1398.000
26.45790 1466.000
26.49846 1413.000
26.53902 1562.000
26.57958 1605.000
26.62014 1517.000
26.66070 1585.000
26.70126 1402.000
26.74182 1239.000
26.78238 1380.000
26.82294 1458.000
26.86350 1451.000
26.90406 1602.000
26.94462 1633.000
26.98518 1560.000
27.02574 1572.000
27.06630 1488.000
27.10686 1339.000
27.14742 1354.000
27.18798 1275.000
27.22854 1220.000
27.26910 1169.000
27.30966 1147.000
27.35022 1154.000
27.39078 1202.000
27.43134 1330.000
27.47190 1253.000
27.51246 1219.000
27.55302 1225.000
27.59358 1075.000
27.63414 857.000
27.67470 818.000
27.71526 673.000
27.75583 621.000
27.79639 642.000
27.83695 628.000
27.87751 542.000
27.91807 613.000
27.95863 616.000
27.99919 664.000
28.03975 628.000
28.08031 555.000
28.12087 671.000
28.16143 678.000
28.20199 674.000
28.24255 744.000
28.28311 876.000
28.32367 902.000
28.36423 1003.000
28.40479 1077.000
28.44535 1155.000
28.48591 1168.000
28.52647 1322.000
28.56703 1322.000
28.60759 1352.000
28.64815 1255.000
28.68871 1081.000
28.72927 1040.000
28.76983 983.000
28.81039 877.000
28.85095 943.000
28.89151 880.000
28.93207 885.000
28.97263 984.000
29.01319 1035.000
29.05375 1113.000
29.09431 1034.000
29.13487 1112.000
29.17543 1022.000
29.21599 903.000
29.25655 950.000
29.29711 985.000
29.33767 1076.000
29.37823 958.000
29.41879 948.000
29.45935 930.000
29.49991 889.000
29.54047 901.000
29.58103 970.000
29.62159 955.000
29.66216 1057.000
29.70272 1023.000
29.74328 1140.000
29.78384 1202.000
29.82440 1191.000
29.86496 1240.000
29.90552 1236.000
29.94608 1137.000
29.98664 1078.000
30.02720 1119.000
30.06776 1063.000
30.10832 954.000
30.14888 916.000
30.18944 918.000
30.23000 823.000
30.27056 802.000
30.31112 886.000
30.35168 859.000
30.39224 854.000
30.43280 940.000
30.47336 818.000
30.51392 747.000
30.55448 749.000
30.59504 659.000
30.63560 615.000
30.67616 585.000
30.71672 595.000
30.75728 603.000
30.79784 558.000
30.83840 606.000
30.87896 586.000
30.91952 704.000
30.96008 658.000
31.00064 741.000
31.04120 797.000
31.08176 760.000
31.12232 834.000
31.16288 814.000
31.20344 840.000
31.24400 800.000
31.28456 757.000
31.32512 737.000
31.36568 691.000
31.40624 604.000
31.44680 641.000
31.48736 685.000
31.52792 726.000
31.56849 691.000
31.60905 743.000
31.64961 791.000
31.69017 836.000
31.73073 769.000
31.77129 772.000
31.81185 781.000
31.85241 755.000
31.89297 777.000
31.93353 822.000
31.97409 765.000
32.01465 782.000
32.05521 823.000
32.09577 763.000
32.13633 742.000
32.17689 677.000
32.21745 692.000
32.25801 706.000
32.29857 626.000
32.33913 667.000
32.37969 626.000
32.42025 666.000
32.46081 583.000
32.50137 564.000
32.54193 569.000
32.58249 574.000
32.62305 576.000
32.66361 552.000
32.70417 535.000
32.74473 605.000
32.78529 648.000
32.82585 599.000
32.86641 578.000
32.90697 588.000
32.94753 672.000
32.98809 659.000
33.02865 698.000
33.06921 674.000
33.10977 725.000
33.15033 736.000
33.19089 724.000
33.23145 813.000
33.27201 734.000
33.31257 764.000
33.35313 766.000
33.39369 801.000
33.43425 767.000
33.47482 707.000
33.51538 643.000
33.55594 640.000
33.59650 673.000
33.63706 623.000
33.67762 621.000
33.71818 553.000
33.75874 594.000
33.79930 547.000
33.83986 566.000
33.88042 613.000
33.92098 560.000
33.96154 576.000
34.00210 625.000
34.04266 658.000
34.08322 727.000
34.12378 645.000
34.16434 689.000
34.20490 677.000
34.24546 733.000
34.28602 652.000
34.32658 753.000
34.36714 736.000
34.40770 819.000
34.44826 925.000
34.48882 983.000
34.52938 1097.000
34.56994 1154.000
34.61050 1075.000
34.65106 1067.000
34.69162 985.000
34.73218 927.000
34.77274 878.000
34.81330 905.000
34.85386 874.000
34.89442 881.000
34.93498 1002.000
34.97554 991.000
35.01610 939.000
35.05666 881.000
35.09722 873.000
35.13778 810.000
35.17834 697.000
35.21890 707.000
35.25946 691.000
35.30002 632.000
35.34058 676.000
35.38115 678.000
35.42171 709.000
35.46227 695.000
35.50283 614.000
35.54339 640.000
35.58395 637.000
35.62451 631.000
35.66507 622.000
35.70563 594.000
35.74619 576.000
35.78675 586.000
35.82731 552.000
35.86787 547.000
35.90843 551.000
35.94899 579.000
35.98955 596.000
36.03011 554.000
36.07067 605.000
36.11123 573.000
36.15179 673.000
36.19235 692.000
36.23291 698.000
36.27347 739.000
36.31403 685.000
36.35459 697.000
36.39515 699.000
36.43571 729.000
36.47627 745.000
36.51683 743.000
36.55739 750.000
36.59795 786.000
36.63851 786.000
36.67907 821.000
36.71963 886.000
36.76019 857.000
36.80075 799.000
36.84131 841.000
36.88187 801.000
36.92243 753.000
36.96299 699.000
37.00355 704.000
37.04411 645.000
37.08467 718.000
37.12523 710.000
37.16579 669.000
37.20635 720.000
37.24691 714.000
37.28748 664.000
37.32804 619.000
37.36860 603.000
37.40916 625.000
37.44972 650.000
37.49028 585.000
37.53084 574.000
37.57140 551.000
37.61196 597.000
37.65252 571.000
37.69308 595.000
37.73364 621.000
37.77420 619.000
37.81476 673.000
37.85532 672.000
37.89588 721.000
37.93644 759.000
37.97700 756.000
38.01756 745.000
38.05812 756.000
38.09868 760.000
38.13924 667.000
38.17980 637.000
38.22036 620.000
38.26092 614.000
38.30148 598.000
38.34204 652.000
38.38260 624.000
38.42316 628.000
38.46372 597.000
38.50428 614.000
38.54484 615.000
38.58540 587.000
38.62596 589.000
38.66652 551.000
38.70708 566.000
38.74764 557.000
38.78820 574.000
38.82876 559.000
38.86932 555.000
38.90988 589.000
38.95044 540.000
38.99100 573.000
39.03156 603.000
39.07212 584.000
39.11268 564.000
39.15324 575.000
39.19381 601.000
39.23437 606.000
39.27493 633.000
39.31549 569.000
39.35605 573.000
39.39661 667.000
39.43717 627.000
39.47773 668.000
39.51829 640.000
39.55885 677.000
39.59941 698.000
39.63997 711.000
39.68053 683.000
39.72109 722.000
39.76165 656.000
39.80221 647.000
39.84277 621.000
39.88333 679.000
39.92389 610.000
39.96445 618.000
40.00501 638.000
40.04557 695.000
40.08613 760.000
40.12669 746.000
40.16725 760.000
40.20781 832.000
40.24837 824.000
40.28893 768.000
40.32949 777.000
40.37005 799.000
40.41061 786.000
40.45117 808.000
40.49173 753.000
40.53229 751.000
40.57285 667.000
40.61341 657.000
40.65397 650.000
40.69453 635.000
40.73509 647.000
40.77565 594.000
40.81621 588.000
40.85677 595.000
40.89733 592.000
40.93789 563.000
40.97845 604.000
41.01901 572.000
41.05957 587.000
41.10014 604.000
41.14070 583.000
41.18126 677.000
41.22182 604.000
41.26238 618.000
41.30294 689.000
41.34350 676.000
41.38406 683.000
41.42462 666.000
41.46518 660.000
41.50574 691.000
41.54630 662.000
41.58686 708.000
41.62742 728.000
41.66798 716.000
41.70854 716.000
41.74910 773.000
41.78966 757.000
41.83022 714.000
41.87078 687.000
41.91134 624.000
41.95190 608.000
41.99246 553.000
42.03302 540.000
42.07358 537.000
42.11414 535.000
42.15470 532.000
42.19526 537.000
42.23582 526.000
42.27638 544.000
42.31694 505.000
42.35750 513.000
42.39806 521.000
42.43862 483.000
42.47918 502.000
42.51974 522.000
42.56030 485.000
42.60086 490.000
42.64142 543.000
42.68198 468.000
42.72254 473.000
42.76310 525.000
42.80366 525.000
42.84422 507.000
42.88478 522.000
42.92534 498.000
42.96590 534.000
43.00647 579.000
43.04703 572.000
43.08759 569.000
43.12815 607.000
43.16871 610.000
43.20927 609.000
43.24983 647.000
43.29039 641.000
43.33095 685.000
43.37151 645.000
43.41207 621.000
43.45263 622.000
43.49319 608.000
43.53375 681.000
43.57431 634.000
43.61487 684.000
43.65543 691.000
43.69599 640.000
43.73655 662.000
43.77711 651.000
43.81767 654.000
43.85823 711.000
43.89879 698.000
43.93935 719.000
43.97991 676.000
44.02047 696.000
44.06103 623.000
44.10159 656.000
44.14215 648.000
44.18271 647.000
44.22327 631.000
44.26383 597.000
44.30439 579.000
44.34495 573.000
44.38551 610.000
44.42607 614.000
44.46663 569.000
44.50719 551.000
44.54775 571.000
44.58831 535.000
44.62887 537.000
44.66943 586.000
44.70999 584.000
44.75055 606.000
44.79111 570.000
44.83167 549.000
44.87223 599.000
44.91280 563.000
44.95336 595.000
44.99392 545.000
45.03448 595.000
45.07504 531.000
45.11560 551.000
45.15616 506.000
45.19672 580.000
45.23728 509.000
45.27784 504.000
45.31840 540.000
45.35896 551.000
45.39952 539.000
45.44008 549.000
45.48064 571.000
45.52120 518.000
45.56176 570.000
45.60232 563.000
45.64288 588.000
45.68344 621.000
45.72400 546.000
45.76456 561.000
45.80512 538.000
45.84568 562.000
45.88624 549.000
45.92680 535.000
45.96736 580.000
46.00792 517.000
46.04848 580.000
46.08904 571.000
46.12960 524.000
46.17016 524.000
46.21072 535.000
46.25128 542.000
46.29184 532.000
46.33240 557.000
46.37296 609.000
46.41352 603.000
46.45408 564.000
46.49464 607.000
46.53520 580.000
46.57576 558.000
46.61632 625.000
46.65688 604.000
46.69744 599.000
46.73800 571.000
46.77856 558.000
46.81913 538.000
46.85969 482.000
46.90025 556.000
46.94081 546.000
46.98137 555.000
47.02193 535.000
47.06249 544.000
47.10305 564.000
47.14361 535.000
47.18417 566.000
47.22473 564.000
47.26529 572.000
47.30585 608.000
47.34641 615.000
47.38697 619.000
47.42753 578.000
47.46809 564.000
47.50865 587.000
47.54921 628.000
47.58977 570.000
47.63033 589.000
47.67089 532.000
47.71145 559.000
47.75201 587.000
47.79257 526.000
47.83313 587.000
47.87369 556.000
47.91425 544.000
47.95481 537.000
47.99537 560.000
48.03593 503.000
48.07649 485.000
48.11705 513.000
48.15761 487.000
48.19817 515.000
48.23873 522.000
48.27929 488.000
48.31985 477.000
48.36041 519.000
48.40097 484.000
48.44153 476.000
48.48209 463.000
48.52265 481.000
48.56321 514.000
48.60377 496.000
48.64433 498.000
48.68489 458.000
48.72546 456.000
48.76602 471.000
48.80658 430.000
48.84714 443.000
48.88770 463.000
48.92826 439.000
48.96882 446.000
49.00938 457.000
49.04994 475.000
49.09050 446.000
49.13106 495.000
49.17162 466.000
49.21218 483.000
49.25274 564.000
49.29330 473.000
49.33386 503.000
49.37442 528.000
49.41498 459.000
49.45554 520.000
49.49610 523.000
49.53666 465.000
49.57722 474.000
49.61778 506.000
49.65834 463.000
49.69890 471.000
49.73946 489.000
49.78002 511.000
49.82058 480.000
49.86114 506.000
49.90170 472.000
49.94226 500.000
49.98282 485.000
50.00310 469.000