File: Task01/nick/files/ESI_material_XRD/steady_state/crystal_size_analysis/Volumes_EtOAc/1930_RVR_10ul_mill_EtOAc.xy
5.00155 900.000
5.04211 837.000
5.08267 864.000
5.12323 801.000
5.16379 782.000
5.20435 802.000
5.24491 807.000
5.28547 779.000
5.32603 733.000
5.36659 726.000
5.40715 725.000
5.44771 730.000
5.48827 708.000
5.52883 708.000
5.56939 715.000
5.60995 716.000
5.65051 672.000
5.69107 622.000
5.73163 597.000
5.77219 623.000
5.81275 639.000
5.85331 619.000
5.89387 575.000
5.93443 576.000
5.97499 558.000
6.01555 609.000
6.05611 605.000
6.09667 612.000
6.13723 613.000
6.17779 581.000
6.21835 603.000
6.25891 639.000
6.29947 643.000
6.34003 566.000
6.38059 637.000
6.42115 642.000
6.46171 714.000
6.50227 769.000
6.54283 1029.000
6.58339 1300.000
6.62395 1693.000
6.66451 2400.000
6.70507 3457.000
6.74564 5001.000
6.78620 6062.000
6.82676 5960.000
6.86732 4610.000
6.90788 2858.000
6.94844 1558.000
6.98900 970.000
7.02956 793.000
7.07012 741.000
7.11068 669.000
7.15124 599.000
7.19180 568.000
7.23236 601.000
7.27292 579.000
7.31348 561.000
7.35404 525.000
7.39460 551.000
7.43516 521.000
7.47572 522.000
7.51628 521.000
7.55684 545.000
7.59740 488.000
7.63796 532.000
7.67852 488.000
7.71908 532.000
7.75964 496.000
7.80020 549.000
7.84076 548.000
7.88132 530.000
7.92188 553.000
7.96244 605.000
8.00300 679.000
8.04356 782.000
8.08412 811.000
8.12468 1100.000
8.16524 1381.000
8.20580 1899.000
8.24636 2762.000
8.28692 3896.000
8.32748 5288.000
8.36804 6040.000
8.40860 5167.000
8.44916 3333.000
8.48972 1877.000
8.53028 1182.000
8.57084 911.000
8.61140 775.000
8.65197 719.000
8.69253 651.000
8.73309 642.000
8.77365 578.000
8.81421 550.000
8.85477 566.000
8.89533 512.000
8.93589 538.000
8.97645 488.000
9.01701 469.000
9.05757 459.000
9.09813 452.000
9.13869 477.000
9.17925 427.000
9.21981 482.000
9.26037 471.000
9.30093 462.000
9.34149 461.000
9.38205 475.000
9.42261 466.000
9.46317 470.000
9.50373 469.000
9.54429 446.000
9.58485 451.000
9.62541 422.000
9.66597 459.000
9.70653 453.000
9.74709 470.000
9.78765 465.000
9.82821 477.000
9.86877 444.000
9.90933 429.000
9.94989 423.000
9.99045 404.000
10.03101 401.000
10.07157 427.000
10.11213 433.000
10.15269 403.000
10.19325 434.000
10.23381 459.000
10.27437 433.000
10.31493 489.000
10.35549 494.000
10.39605 581.000
10.43661 638.000
10.47717 913.000
10.51773 1070.000
10.55830 1177.000
10.59886 1035.000
10.63942 731.000
10.67998 633.000
10.72054 558.000
10.76110 508.000
10.80166 500.000
10.84222 432.000
10.88278 424.000
10.92334 408.000
10.96390 412.000
11.00446 433.000
11.04502 394.000
11.08558 371.000
11.12614 414.000
11.16670 405.000
11.20726 403.000
11.24782 401.000
11.28838 385.000
11.32894 371.000
11.36950 415.000
11.41006 384.000
11.45062 371.000
11.49118 398.000
11.53174 398.000
11.57230 385.000
11.61286 352.000
11.65342 370.000
11.69398 397.000
11.73454 345.000
11.77510 420.000
11.81566 380.000
11.85622 392.000
11.89678 412.000
11.93734 363.000
11.97790 391.000
12.01846 373.000
12.05902 365.000
12.09958 380.000
12.14014 382.000
12.18070 364.000
12.22126 394.000
12.26182 383.000
12.30238 381.000
12.34294 421.000
12.38350 400.000
12.42406 369.000
12.46463 364.000
12.50519 402.000
12.54575 455.000
12.58631 362.000
12.62687 399.000
12.66743 401.000
12.70799 385.000
12.74855 390.000
12.78911 409.000
12.82967 398.000
12.87023 412.000
12.91079 405.000
12.95135 413.000
12.99191 488.000
13.03247 472.000
13.07303 590.000
13.11359 735.000
13.15415 863.000
13.19471 947.000
13.23527 918.000
13.27583 874.000
13.31639 992.000
13.35695 1014.000
13.39751 1054.000
13.43807 1108.000
13.47863 1315.000
13.51919 1605.000
13.55975 1662.000
13.60031 1455.000
13.64087 1129.000
13.68143 941.000
13.72199 715.000
13.76255 597.000
13.80311 516.000
13.84367 507.000
13.88423 522.000
13.92479 488.000
13.96535 449.000
14.00591 494.000
14.04647 454.000
14.08703 459.000
14.12759 450.000
14.16815 486.000
14.20871 456.000
14.24927 466.000
14.28983 497.000
14.33039 491.000
14.37096 548.000
14.41152 542.000
14.45208 623.000
14.49264 689.000
14.53320 910.000
14.57376 1257.000
14.61432 1728.000
14.65488 2132.000
14.69544 2250.000
14.73600 1780.000
14.77656 1257.000
14.81712 1100.000
14.85768 1276.000
14.89824 1461.000
14.93880 1424.000
14.97936 1118.000
15.01992 774.000
15.06048 558.000
15.10104 526.000
15.14160 527.000
15.18216 572.000
15.22272 519.000
15.26328 516.000
15.30384 491.000
15.34440 514.000
15.38496 481.000
15.42552 474.000
15.46608 500.000
15.50664 463.000
15.54720 524.000
15.58776 483.000
15.62832 514.000
15.66888 473.000
15.70944 457.000
15.75000 499.000
15.79056 540.000
15.83112 545.000
15.87168 524.000
15.91224 587.000
15.95280 566.000
15.99336 640.000
16.03392 605.000
16.07448 690.000
16.11504 704.000
16.15560 836.000
16.19616 1058.000
16.23672 1471.000
16.27729 2066.000
16.31785 2545.000
16.35841 3211.000
16.39897 3150.000
16.43953 2743.000
16.48009 2124.000
16.52065 1867.000
16.56121 1832.000
16.60177 1926.000
16.64233 2078.000
16.68289 2191.000
16.72345 2511.000
16.76401 2781.000
16.80457 2894.000
16.84513 2377.000
16.88569 1869.000
16.92625 1921.000
16.96681 2043.000
17.00737 2570.000
17.04793 3638.000
17.08849 4551.000
17.12905 4924.000
17.16961 4107.000
17.21017 2843.000
17.25073 1926.000
17.29129 1443.000
17.33185 1148.000
17.37241 925.000
17.41297 918.000
17.45353 833.000
17.49409 852.000
17.53465 827.000
17.57521 814.000
17.61577 911.000
17.65633 843.000
17.69689 920.000
17.73745 979.000
17.77801 1046.000
17.81857 1169.000
17.85913 1400.000
17.89969 1786.000
17.94025 2416.000
17.98081 3334.000
18.02137 4766.000
18.06193 6207.000
18.10249 7048.000
18.14305 6489.000
18.18362 4790.000
18.22418 3378.000
18.26474 2163.000
18.30530 1636.000
18.34586 1315.000
18.38642 1261.000
18.42698 1244.000
18.46754 1330.000
18.50810 1421.000
18.54866 1795.000
18.58922 2246.000
18.62978 2852.000
18.67034 3393.000
18.71090 3654.000
18.75146 3328.000
18.79202 2749.000
18.83258 2091.000
18.87314 1713.000
18.91370 1523.000
18.95426 1606.000
18.99482 1678.000
19.03538 1739.000
19.07594 1482.000
19.11650 1343.000
19.15706 1185.000
19.19762 1166.000
19.23818 1146.000
19.27874 1199.000
19.31930 1407.000
19.35986 1771.000
19.40042 2302.000
19.44098 2908.000
19.48154 3664.000
19.52210 3982.000
19.56266 3584.000
19.60322 2835.000
19.64378 2288.000
19.68434 2063.000
19.72490 2062.000
19.76546 2211.000
19.80602 2563.000
19.84658 3223.000
19.88714 3954.000
19.92770 4277.000
19.96826 3826.000
20.00882 3029.000
20.04938 2588.000
20.08995 2483.000
20.13051 2679.000
20.17107 2827.000
20.21163 3036.000
20.25219 3192.000
20.29275 3689.000
20.33331 4244.000
20.37387 4041.000
20.41443 3155.000
20.45499 2065.000
20.49555 1547.000
20.53611 1320.000
20.57667 1161.000
20.61723 1136.000
20.65779 1037.000
20.69835 987.000
20.73891 960.000
20.77947 1005.000
20.82003 1018.000
20.86059 1065.000
20.90115 1066.000
20.94171 1149.000
20.98227 1191.000
21.02283 1261.000
21.06339 1423.000
21.10395 1721.000
21.14451 1907.000
21.18507 2432.000
21.22563 2738.000
21.26619 3535.000
21.30675 4472.000
21.34731 5801.000
21.38787 7123.000
21.42843 8147.000
21.46899 9117.000
21.50955 9810.000
21.55011 10253.000
21.59067 9953.000
21.63123 8892.000
21.67179 7430.000
21.71235 6180.000
21.75291 4320.000
21.79347 3027.000
21.83403 2199.000
21.87459 1685.000
21.91515 1474.000
21.95571 1298.000
21.99628 1164.000
22.03684 1060.000
22.07740 1054.000
22.11796 906.000
22.15852 999.000
22.19908 961.000
22.23964 994.000
22.28020 1071.000
22.32076 1087.000
22.36132 1154.000
22.40188 1337.000
22.44244 1399.000
22.48300 1514.000
22.52356 1544.000
22.56412 1421.000
22.60468 1241.000
22.64524 1126.000
22.68580 1142.000
22.72636 1152.000
22.76692 1267.000
22.80748 1299.000
22.84804 1474.000
22.88860 1545.000
22.92916 1589.000
22.96972 1433.000
23.01028 1427.000
23.05084 1258.000
23.09140 1138.000
23.13196 1053.000
23.17252 1024.000
23.21308 1038.000
23.25364 1154.000
23.29420 1336.000
23.33476 1561.000
23.37532 1848.000
23.41588 2215.000
23.45644 2667.000
23.49700 3011.000
23.53756 3201.000
23.57812 3149.000
23.61868 2685.000
23.65924 2206.000
23.69980 1919.000
23.74036 1761.000
23.78092 1552.000
23.82148 1421.000
23.86204 1335.000
23.90261 1159.000
23.94317 1057.000
23.98373 1049.000
24.02429 938.000
24.06485 932.000
24.10541 1008.000
24.14597 1049.000
24.18653 1085.000
24.22709 1301.000
24.26765 1457.000
24.30821 1773.000
24.34877 2111.000
24.38933 2133.000
24.42989 2035.000
24.47045 1728.000
24.51101 1359.000
24.55157 1157.000
24.59213 1027.000
24.63269 1095.000
24.67325 1171.000
24.71381 1258.000
24.75437 1255.000
24.79493 1135.000
24.83549 1060.000
24.87605 953.000
24.91661 875.000
24.95717 942.000
24.99773 1019.000
25.03829 1129.000
25.07885 1342.000
25.11941 1451.000
25.15997 1708.000
25.20053 1824.000
25.24109 1850.000
25.28165 1612.000
25.32221 1479.000
25.36277 1488.000
25.40333 1402.000
25.44389 1425.000
25.48445 1375.000
25.52501 1186.000
25.56557 1136.000
25.60613 1011.000
25.64669 860.000
25.68725 848.000
25.72781 868.000
25.76837 883.000
25.80893 991.000
25.84950 1086.000
25.89006 1159.000
25.93062 1362.000
25.97118 1502.000
26.01174 1699.000
26.05230 1761.000
26.09286 1662.000
26.13342 1564.000
26.17398 1507.000
26.21454 1310.000
26.25510 1206.000
26.29566 1228.000
26.33622 1143.000
26.37678 1211.000
26.41734 1267.000
26.45790 1366.000
26.49846 1523.000
26.53902 1533.000
26.57958 1681.000
26.62014 1554.000
26.66070 1516.000
26.70126 1371.000
26.74182 1317.000
26.78238 1298.000
26.82294 1343.000
26.86350 1527.000
26.90406 1641.000
26.94462 1654.000
26.98518 1684.000
27.02574 1623.000
27.06630 1513.000
27.10686 1416.000
27.14742 1333.000
27.18798 1361.000
27.22854 1271.000
27.26910 1217.000
27.30966 1263.000
27.35022 1177.000
27.39078 1310.000
27.43134 1281.000
27.47190 1341.000
27.51246 1286.000
27.55302 1129.000
27.59358 947.000
27.63414 881.000
27.67470 786.000
27.71526 661.000
27.75583 668.000
27.79639 605.000
27.83695 594.000
27.87751 622.000
27.91807 571.000
27.95863 591.000
27.99919 627.000
28.03975 614.000
28.08031 601.000
28.12087 655.000
28.16143 700.000
28.20199 717.000
28.24255 778.000
28.28311 822.000
28.32367 839.000
28.36423 945.000
28.40479 1061.000
28.44535 1135.000
28.48591 1194.000
28.52647 1163.000
28.56703 1136.000
28.60759 1058.000
28.64815 1044.000
28.68871 902.000
28.72927 854.000
28.76983 810.000
28.81039 832.000
28.85095 803.000
28.89151 829.000
28.93207 941.000
28.97263 1007.000
29.01319 1017.000
29.05375 1091.000
29.09431 1109.000
29.13487 1022.000
29.17543 952.000
29.21599 993.000
29.25655 930.000
29.29711 911.000
29.33767 969.000
29.37823 927.000
29.41879 944.000
29.45935 921.000
29.49991 887.000
29.54047 927.000
29.58103 883.000
29.62159 891.000
29.66216 975.000
29.70272 967.000
29.74328 1027.000
29.78384 1091.000
29.82440 1042.000
29.86496 1049.000
29.90552 1061.000
29.94608 1026.000
29.98664 967.000
30.02720 994.000
30.06776 992.000
30.10832 931.000
30.14888 832.000
30.18944 815.000
30.23000 743.000
30.27056 814.000
30.31112 773.000
30.35168 809.000
30.39224 872.000
30.43280 847.000
30.47336 807.000
30.51392 744.000
30.55448 698.000
30.59504 579.000
30.63560 582.000
30.67616 550.000
30.71672 493.000
30.75728 554.000
30.79784 558.000
30.83840 550.000
30.87896 564.000
30.91952 578.000
30.96008 605.000
31.00064 670.000
31.04120 717.000
31.08176 806.000
31.12232 679.000
31.16288 740.000
31.20344 748.000
31.24400 703.000
31.28456 648.000
31.32512 610.000
31.36568 595.000
31.40624 556.000
31.44680 561.000
31.48736 581.000
31.52792 569.000
31.56849 571.000
31.60905 611.000
31.64961 629.000
31.69017 679.000
31.73073 668.000
31.77129 699.000
31.81185 626.000
31.85241 690.000
31.89297 686.000
31.93353 688.000
31.97409 727.000
32.01465 700.000
32.05521 691.000
32.09577 653.000
32.13633 610.000
32.17689 683.000
32.21745 643.000
32.25801 589.000
32.29857 567.000
32.33913 571.000
32.37969 578.000
32.42025 556.000
32.46081 537.000
32.50137 512.000
32.54193 502.000
32.58249 515.000
32.62305 516.000
32.66361 517.000
32.70417 609.000
32.74473 569.000
32.78529 586.000
32.82585 633.000
32.86641 571.000
32.90697 637.000
32.94753 711.000
32.98809 733.000
33.02865 717.000
33.06921 657.000
33.10977 680.000
33.15033 651.000
33.19089 702.000
33.23145 706.000
33.27201 774.000
33.31257 813.000
33.35313 820.000
33.39369 722.000
33.43425 704.000
33.47482 657.000
33.51538 578.000
33.55594 562.000
33.59650 573.000
33.63706 526.000
33.67762 508.000
33.71818 579.000
33.75874 513.000
33.79930 514.000
33.83986 545.000
33.88042 564.000
33.92098 603.000
33.96154 650.000
34.00210 654.000
34.04266 626.000
34.08322 645.000
34.12378 681.000
34.16434 700.000
34.20490 686.000
34.24546 653.000
34.28602 724.000
34.32658 746.000
34.36714 821.000
34.40770 853.000
34.44826 936.000
34.48882 993.000
34.52938 1112.000
34.56994 1214.000
34.61050 1173.000
34.65106 1108.000
34.69162 1016.000
34.73218 918.000
34.77274 860.000
34.81330 811.000
34.85386 837.000
34.89442 905.000
34.93498 915.000
34.97554 899.000
35.01610 828.000
35.05666 835.000
35.09722 749.000
35.13778 704.000
35.17834 722.000
35.21890 653.000
35.25946 596.000
35.30002 585.000
35.34058 598.000
35.38115 588.000
35.42171 610.000
35.46227 636.000
35.50283 650.000
35.54339 607.000
35.58395 626.000
35.62451 625.000
35.66507 574.000
35.70563 589.000
35.74619 532.000
35.78675 525.000
35.82731 517.000
35.86787 489.000
35.90843 467.000
35.94899 487.000
35.98955 512.000
36.03011 478.000
36.07067 521.000
36.11123 576.000
36.15179 550.000
36.19235 621.000
36.23291 608.000
36.27347 608.000
36.31403 611.000
36.35459 616.000
36.39515 677.000
36.43571 649.000
36.47627 689.000
36.51683 751.000
36.55739 714.000
36.59795 779.000
36.63851 785.000
36.67907 914.000
36.71963 875.000
36.76019 881.000
36.80075 890.000
36.84131 806.000
36.88187 747.000
36.92243 746.000
36.96299 729.000
37.00355 643.000
37.04411 660.000
37.08467 668.000
37.12523 676.000
37.16579 647.000
37.20635 641.000
37.24691 632.000
37.28748 583.000
37.32804 568.000
37.36860 590.000
37.40916 548.000
37.44972 528.000
37.49028 545.000
37.53084 576.000
37.57140 571.000
37.61196 576.000
37.65252 561.000
37.69308 620.000
37.73364 633.000
37.77420 633.000
37.81476 634.000
37.85532 703.000
37.89588 677.000
37.93644 715.000
37.97700 736.000
38.01756 747.000
38.05812 723.000
38.09868 684.000
38.13924 662.000
38.17980 613.000
38.22036 579.000
38.26092 530.000
38.30148 567.000
38.34204 582.000
38.38260 608.000
38.42316 625.000
38.46372 559.000
38.50428 584.000
38.54484 587.000
38.58540 554.000
38.62596 526.000
38.66652 543.000
38.70708 519.000
38.74764 477.000
38.78820 519.000
38.82876 469.000
38.86932 523.000
38.90988 504.000
38.95044 496.000
38.99100 472.000
39.03156 527.000
39.07212 545.000
39.11268 544.000
39.15324 528.000
39.19381 583.000
39.23437 591.000
39.27493 548.000
39.31549 569.000
39.35605 561.000
39.39661 590.000
39.43717 587.000
39.47773 595.000
39.51829 612.000
39.55885 616.000
39.59941 625.000
39.63997 700.000
39.68053 640.000
39.72109 619.000
39.76165 558.000
39.80221 604.000
39.84277 590.000
39.88333 631.000
39.92389 636.000
39.96445 677.000
40.00501 681.000
40.04557 740.000
40.08613 686.000
40.12669 719.000
40.16725 765.000
40.20781 787.000
40.24837 750.000
40.28893 780.000
40.32949 775.000
40.37005 769.000
40.41061 721.000
40.45117 718.000
40.49173 700.000
40.53229 626.000
40.57285 672.000
40.61341 586.000
40.65397 626.000
40.69453 581.000
40.73509 583.000
40.77565 490.000
40.81621 560.000
40.85677 538.000
40.89733 529.000
40.93789 561.000
40.97845 554.000
41.01901 603.000
41.05957 532.000
41.10014 578.000
41.14070 559.000
41.18126 565.000
41.22182 591.000
41.26238 636.000
41.30294 597.000
41.34350 629.000
41.38406 688.000
41.42462 636.000
41.46518 728.000
41.50574 703.000
41.54630 659.000
41.58686 662.000
41.62742 697.000
41.66798 714.000
41.70854 758.000
41.74910 683.000
41.78966 707.000
41.83022 681.000
41.87078 644.000
41.91134 655.000
41.95190 589.000
41.99246 525.000
42.03302 546.000
42.07358 485.000
42.11414 481.000
42.15470 480.000
42.19526 466.000
42.23582 495.000
42.27638 454.000
42.31694 505.000
42.35750 469.000
42.39806 475.000
42.43862 450.000
42.47918 496.000
42.51974 443.000
42.56030 491.000
42.60086 487.000
42.64142 439.000
42.68198 439.000
42.72254 474.000
42.76310 464.000
42.80366 501.000
42.84422 461.000
42.88478 489.000
42.92534 475.000
42.96590 484.000
43.00647 500.000
43.04703 492.000
43.08759 534.000
43.12815 546.000
43.16871 534.000
43.20927 654.000
43.24983 656.000
43.29039 630.000
43.33095 702.000
43.37151 677.000
43.41207 705.000
43.45263 658.000
43.49319 624.000
43.53375 625.000
43.57431 640.000
43.61487 591.000
43.65543 640.000
43.69599 634.000
43.73655 643.000
43.77711 639.000
43.81767 669.000
43.85823 652.000
43.89879 660.000
43.93935 670.000
43.97991 663.000
44.02047 653.000
44.06103 664.000
44.10159 667.000
44.14215 617.000
44.18271 599.000
44.22327 626.000
44.26383 555.000
44.30439 511.000
44.34495 518.000
44.38551 574.000
44.42607 516.000
44.46663 542.000
44.50719 502.000
44.54775 505.000
44.58831 499.000
44.62887 479.000
44.66943 519.000
44.70999 516.000
44.75055 561.000
44.79111 543.000
44.83167 543.000
44.87223 498.000
44.91280 486.000
44.95336 507.000
44.99392 523.000
45.03448 538.000
45.07504 521.000
45.11560 521.000
45.15616 498.000
45.19672 567.000
45.23728 483.000
45.27784 466.000
45.31840 453.000
45.35896 511.000
45.39952 478.000
45.44008 522.000
45.48064 519.000
45.52120 481.000
45.56176 535.000
45.60232 530.000
45.64288 555.000
45.68344 509.000
45.72400 547.000
45.76456 535.000
45.80512 516.000
45.84568 509.000
45.88624 558.000
45.92680 508.000
45.96736 545.000
46.00792 524.000
46.04848 487.000
46.08904 497.000
46.12960 495.000
46.17016 513.000
46.21072 561.000
46.25128 513.000
46.29184 488.000
46.33240 515.000
46.37296 560.000
46.41352 583.000
46.45408 549.000
46.49464 554.000
46.53520 549.000
46.57576 552.000
46.61632 553.000
46.65688 567.000
46.69744 551.000
46.73800 536.000
46.77856 503.000
46.81913 511.000
46.85969 535.000
46.90025 468.000
46.94081 522.000
46.98137 474.000
47.02193 503.000
47.06249 513.000
47.10305 534.000
47.14361 565.000
47.18417 510.000
47.22473 570.000
47.26529 540.000
47.30585 551.000
47.34641 621.000
47.38697 613.000
47.42753 596.000
47.46809 509.000
47.50865 573.000
47.54921 565.000
47.58977 524.000
47.63033 511.000
47.67089 542.000
47.71145 497.000
47.75201 546.000
47.79257 532.000
47.83313 578.000
47.87369 482.000
47.91425 495.000
47.95481 473.000
47.99537 520.000
48.03593 492.000
48.07649 495.000
48.11705 432.000
48.15761 466.000
48.19817 464.000
48.23873 451.000
48.27929 443.000
48.31985 464.000
48.36041 463.000
48.40097 454.000
48.44153 474.000
48.48209 425.000
48.52265 467.000
48.56321 467.000
48.60377 466.000
48.64433 456.000
48.68489 448.000
48.72546 458.000
48.76602 419.000
48.80658 451.000
48.84714 415.000
48.88770 436.000
48.92826 423.000
48.96882 406.000
49.00938 420.000
49.04994 425.000
49.09050 434.000
49.13106 421.000
49.17162 431.000
49.21218 440.000
49.25274 433.000
49.29330 408.000
49.33386 452.000
49.37442 463.000
49.41498 467.000
49.45554 478.000
49.49610 474.000
49.53666 466.000
49.57722 413.000
49.61778 422.000
49.65834 454.000
49.69890 443.000
49.73946 428.000
49.78002 445.000
49.82058 445.000
49.86114 478.000
49.90170 421.000
49.94226 455.000
49.98282 455.000
50.00310 503.000