File: Task01/nick/files/ESI_material_XRD/steady_state/crystal_size_analysis/Volumes_EtOAc/1940_RVR_40ul_mill_EtOAc.xy
5.00155 800.000
5.04211 786.000
5.08267 818.000
5.12323 765.000
5.16379 711.000
5.20435 771.000
5.24491 721.000
5.28547 732.000
5.32603 736.000
5.36659 667.000
5.40715 596.000
5.44771 704.000
5.48827 632.000
5.52883 636.000
5.56939 658.000
5.60995 603.000
5.65051 606.000
5.69107 612.000
5.73163 572.000
5.77219 602.000
5.81275 624.000
5.85331 548.000
5.89387 602.000
5.93443 558.000
5.97499 544.000
6.01555 556.000
6.05611 537.000
6.09667 571.000
6.13723 546.000
6.17779 523.000
6.21835 547.000
6.25891 565.000
6.29947 665.000
6.34003 760.000
6.38059 921.000
6.42115 956.000
6.46171 898.000
6.50227 724.000
6.54283 677.000
6.58339 552.000
6.62395 638.000
6.66451 621.000
6.70507 833.000
6.74564 1039.000
6.78620 1397.000
6.82676 1432.000
6.86732 1264.000
6.90788 976.000
6.94844 647.000
6.98900 501.000
7.02956 439.000
7.07012 481.000
7.11068 455.000
7.15124 435.000
7.19180 391.000
7.23236 403.000
7.27292 452.000
7.31348 462.000
7.35404 416.000
7.39460 415.000
7.43516 374.000
7.47572 355.000
7.51628 390.000
7.55684 444.000
7.59740 381.000
7.63796 420.000
7.67852 408.000
7.71908 460.000
7.75964 403.000
7.80020 428.000
7.84076 423.000
7.88132 406.000
7.92188 416.000
7.96244 423.000
8.00300 428.000
8.04356 423.000
8.08412 453.000
8.12468 512.000
8.16524 518.000
8.20580 546.000
8.24636 716.000
8.28692 996.000
8.32748 1411.000
8.36804 1695.000
8.40860 1845.000
8.44916 1669.000
8.48972 1703.000
8.53028 2269.000
8.57084 3499.000
8.61140 5004.000
8.65197 5591.000
8.69253 4538.000
8.73309 2652.000
8.77365 1552.000
8.81421 961.000
8.85477 768.000
8.89533 635.000
8.93589 623.000
8.97645 573.000
9.01701 570.000
9.05757 572.000
9.09813 532.000
9.13869 561.000
9.17925 589.000
9.21981 614.000
9.26037 646.000
9.30093 778.000
9.34149 989.000
9.38205 1458.000
9.42261 2192.000
9.46317 2968.000
9.50373 3236.000
9.54429 2651.000
9.58485 1709.000
9.62541 1192.000
9.66597 959.000
9.70653 1214.000
9.74709 1683.000
9.78765 2415.000
9.82821 3514.000
9.86877 4215.000
9.90933 3536.000
9.94989 2090.000
9.99045 1235.000
10.03101 874.000
10.07157 692.000
10.11213 669.000
10.15269 536.000
10.19325 532.000
10.23381 468.000
10.27437 524.000
10.31493 534.000
10.35549 572.000
10.39605 545.000
10.43661 540.000
10.47717 617.000
10.51773 691.000
10.55830 630.000
10.59886 605.000
10.63942 520.000
10.67998 541.000
10.72054 553.000
10.76110 616.000
10.80166 758.000
10.84222 1117.000
10.88278 1781.000
10.92334 2331.000
10.96390 2490.000
11.00446 2035.000
11.04502 1124.000
11.08558 727.000
11.12614 604.000
11.16670 507.000
11.20726 476.000
11.24782 434.000
11.28838 440.000
11.32894 417.000
11.36950 391.000
11.41006 415.000
11.45062 419.000
11.49118 402.000
11.53174 390.000
11.57230 386.000
11.61286 405.000
11.65342 377.000
11.69398 412.000
11.73454 371.000
11.77510 382.000
11.81566 391.000
11.85622 380.000
11.89678 378.000
11.93734 379.000
11.97790 387.000
12.01846 396.000
12.05902 376.000
12.09958 384.000
12.14014 378.000
12.18070 415.000
12.22126 400.000
12.26182 406.000
12.30238 452.000
12.34294 438.000
12.38350 451.000
12.42406 420.000
12.46463 375.000
12.50519 391.000
12.54575 399.000
12.58631 389.000
12.62687 377.000
12.66743 388.000
12.70799 403.000
12.74855 430.000
12.78911 368.000
12.82967 425.000
12.87023 451.000
12.91079 500.000
12.95135 553.000
12.99191 621.000
13.03247 574.000
13.07303 574.000
13.11359 592.000
13.15415 681.000
13.19471 842.000
13.23527 1001.000
13.27583 1034.000
13.31639 989.000
13.35695 798.000
13.39751 730.000
13.43807 698.000
13.47863 710.000
13.51919 892.000
13.55975 1200.000
13.60031 1595.000
13.64087 2023.000
13.68143 2579.000
13.72199 2947.000
13.76255 2651.000
13.80311 2543.000
13.84367 2097.000
13.88423 1423.000
13.92479 880.000
13.96535 651.000
14.00591 544.000
14.04647 514.000
14.08703 501.000
14.12759 449.000
14.16815 470.000
14.20871 439.000
14.24927 467.000
14.28983 464.000
14.33039 454.000
14.37096 460.000
14.41152 438.000
14.45208 435.000
14.49264 451.000
14.53320 510.000
14.57376 494.000
14.61432 622.000
14.65488 746.000
14.69544 845.000
14.73600 746.000
14.77656 740.000
14.81712 740.000
14.85768 911.000
14.89824 1037.000
14.93880 934.000
14.97936 757.000
15.01992 613.000
15.06048 477.000
15.10104 510.000
15.14160 512.000
15.18216 449.000
15.22272 471.000
15.26328 469.000
15.30384 484.000
15.34440 515.000
15.38496 504.000
15.42552 501.000
15.46608 598.000
15.50664 660.000
15.54720 810.000
15.58776 1054.000
15.62832 1144.000
15.66888 1018.000
15.70944 978.000
15.75000 943.000
15.79056 781.000
15.83112 795.000
15.87168 884.000
15.91224 1101.000
15.95280 1518.000
15.99336 2220.000
16.03392 3155.000
16.07448 3953.000
16.11504 3616.000
16.15560 2486.000
16.19616 1590.000
16.23672 1218.000
16.27729 1199.000
16.31785 1379.000
16.35841 1685.000
16.39897 2068.000
16.43953 1966.000
16.48009 1820.000
16.52065 1647.000
16.56121 1870.000
16.60177 2437.000
16.64233 3285.000
16.68289 3605.000
16.72345 3062.000
16.76401 2127.000
16.80457 1688.000
16.84513 1389.000
16.88569 1095.000
16.92625 986.000
16.96681 987.000
17.00737 1162.000
17.04793 1336.000
17.08849 1612.000
17.12905 1822.000
17.16961 1852.000
17.21017 2150.000
17.25073 2863.000
17.29129 3864.000
17.33185 4881.000
17.37241 4731.000
17.41297 3370.000
17.45353 2131.000
17.49409 1552.000
17.53465 1545.000
17.57521 1572.000
17.61577 2110.000
17.65633 2996.000
17.69689 4882.000
17.73745 7099.000
17.77801 8329.000
17.81857 6525.000
17.85913 3844.000
17.89969 2408.000
17.94025 1966.000
17.98081 1994.000
18.02137 2050.000
18.06193 2281.000
18.10249 2467.000
18.14305 2702.000
18.18362 2802.000
18.22418 3470.000
18.26474 4426.000
18.30530 5966.000
18.34586 7261.000
18.38642 7818.000
18.42698 6489.000
18.46754 4408.000
18.50810 2641.000
18.54866 1858.000
18.58922 1590.000
18.62978 1558.000
18.67034 1621.000
18.71090 1801.000
18.75146 1951.000
18.79202 2208.000
18.83258 2812.000
18.87314 3358.000
18.91370 3771.000
18.95426 3446.000
18.99482 2812.000
19.03538 2223.000
19.07594 1845.000
19.11650 1522.000
19.15706 1313.000
19.19762 1293.000
19.23818 1331.000
19.27874 1442.000
19.31930 1675.000
19.35986 1837.000
19.40042 2398.000
19.44098 2903.000
19.48154 3551.000
19.52210 3640.000
19.56266 3279.000
19.60322 2667.000
19.64378 2328.000
19.68434 2580.000
19.72490 3029.000
19.76546 3781.000
19.80602 3795.000
19.84658 3413.000
19.88714 3133.000
19.92770 3712.000
19.96826 4413.000
20.00882 5382.000
20.04938 5409.000
20.08995 4668.000
20.13051 3640.000
20.17107 2732.000
20.21163 2369.000
20.25219 2387.000
20.29275 2491.000
20.33331 2886.000
20.37387 2887.000
20.41443 2541.000
20.45499 2208.000
20.49555 2547.000
20.53611 2976.000
20.57667 3891.000
20.61723 4727.000
20.65779 4679.000
20.69835 3417.000
20.73891 2310.000
20.77947 1586.000
20.82003 1331.000
20.86059 1344.000
20.90115 1502.000
20.94171 1418.000
20.98227 1367.000
21.02283 1193.000
21.06339 1175.000
21.10395 1180.000
21.14451 1360.000
21.18507 1486.000
21.22563 1729.000
21.26619 2035.000
21.30675 2376.000
21.34731 2741.000
21.38787 3426.000
21.42843 4416.000
21.46899 4809.000
21.50955 4996.000
21.55011 5224.000
21.59067 5704.000
21.63123 6402.000
21.67179 7096.000
21.71235 6473.000
21.75291 4811.000
21.79347 3259.000
21.83403 2153.000
21.87459 1729.000
21.91515 1535.000
21.95571 1527.000
21.99628 1618.000
22.03684 1793.000
22.07740 1905.000
22.11796 2262.000
22.15852 2601.000
22.19908 2636.000
22.23964 2328.000
22.28020 1852.000
22.32076 1229.000
22.36132 1152.000
22.40188 1117.000
22.44244 1123.000
22.48300 1239.000
22.52356 1366.000
22.56412 1421.000
22.60468 1546.000
22.64524 1483.000
22.68580 1770.000
22.72636 1996.000
22.76692 1937.000
22.80748 1727.000
22.84804 1398.000
22.88860 1199.000
22.92916 1090.000
22.96972 1063.000
23.01028 1150.000
23.05084 1140.000
23.09140 1183.000
23.13196 1114.000
23.17252 990.000
23.21308 938.000
23.25364 1038.000
23.29420 1138.000
23.33476 1390.000
23.37532 1670.000
23.41588 1900.000
23.45644 2135.000
23.49700 2042.000
23.53756 1704.000
23.57812 1610.000
23.61868 1442.000
23.65924 1475.000
23.69980 1464.000
23.74036 1322.000
23.78092 1265.000
23.82148 1275.000
23.86204 1297.000
23.90261 1445.000
23.94317 1499.000
23.98373 1711.000
24.02429 1603.000
24.06485 1655.000
24.10541 1652.000
24.14597 1676.000
24.18653 1649.000
24.22709 1649.000
24.26765 1424.000
24.30821 1308.000
24.34877 1314.000
24.38933 1437.000
24.42989 1481.000
24.47045 1480.000
24.51101 1299.000
24.55157 1116.000
24.59213 1101.000
24.63269 1219.000
24.67325 1363.000
24.71381 1604.000
24.75437 1714.000
24.79493 1706.000
24.83549 1511.000
24.87605 1394.000
24.91661 1220.000
24.95717 1040.000
24.99773 935.000
25.03829 994.000
25.07885 1067.000
25.11941 1158.000
25.15997 1453.000
25.20053 1769.000
25.24109 2130.000
25.28165 2722.000
25.32221 2967.000
25.36277 2971.000
25.40333 2624.000
25.44389 2154.000
25.48445 1797.000
25.52501 1503.000
25.56557 1213.000
25.60613 1022.000
25.64669 1065.000
25.68725 1151.000
25.72781 1209.000
25.76837 1452.000
25.80893 1433.000
25.84950 1472.000
25.89006 1303.000
25.93062 1348.000
25.97118 1386.000
26.01174 1639.000
26.05230 1854.000
26.09286 2100.000
26.13342 2171.000
26.17398 1958.000
26.21454 1694.000
26.25510 1606.000
26.29566 1567.000
26.33622 1625.000
26.37678 1551.000
26.41734 1528.000
26.45790 1521.000
26.49846 1546.000
26.53902 1413.000
26.57958 1215.000
26.62014 1078.000
26.66070 928.000
26.70126 905.000
26.74182 893.000
26.78238 861.000
26.82294 1039.000
26.86350 1067.000
26.90406 1210.000
26.94462 1294.000
26.98518 1197.000
27.02574 988.000
27.06630 911.000
27.10686 822.000
27.14742 838.000
27.18798 768.000
27.22854 770.000
27.26910 758.000
27.30966 835.000
27.35022 896.000
27.39078 841.000
27.43134 882.000
27.47190 973.000
27.51246 1022.000
27.55302 929.000
27.59358 841.000
27.63414 801.000
27.67470 693.000
27.71526 612.000
27.75583 605.000
27.79639 602.000
27.83695 556.000
27.87751 590.000
27.91807 614.000
27.95863 592.000
27.99919 608.000
28.03975 580.000
28.08031 654.000
28.12087 586.000
28.16143 570.000
28.20199 603.000
28.24255 661.000
28.28311 746.000
28.32367 795.000
28.36423 847.000
28.40479 1003.000
28.44535 1209.000
28.48591 1455.000
28.52647 1853.000
28.56703 1905.000
28.60759 2030.000
28.64815 1895.000
28.68871 1640.000
28.72927 1441.000
28.76983 1356.000
28.81039 1243.000
28.85095 993.000
28.89151 878.000
28.93207 725.000
28.97263 627.000
29.01319 706.000
29.05375 748.000
29.09431 717.000
29.13487 691.000
29.17543 739.000
29.21599 705.000
29.25655 730.000
29.29711 711.000
29.33767 673.000
29.37823 645.000
29.41879 641.000
29.45935 651.000
29.49991 646.000
29.54047 735.000
29.58103 773.000
29.62159 792.000
29.66216 901.000
29.70272 1105.000
29.74328 1257.000
29.78384 1488.000
29.82440 1483.000
29.86496 1541.000
29.90552 1355.000
29.94608 1352.000
29.98664 1356.000
30.02720 1293.000
30.06776 1400.000
30.10832 1311.000
30.14888 1291.000
30.18944 1146.000
30.23000 1085.000
30.27056 972.000
30.31112 909.000
30.35168 922.000
30.39224 800.000
30.43280 774.000
30.47336 765.000
30.51392 635.000
30.55448 618.000
30.59504 620.000
30.63560 598.000
30.67616 600.000
30.71672 645.000
30.75728 669.000
30.79784 681.000
30.83840 672.000
30.87896 762.000
30.91952 800.000
30.96008 774.000
31.00064 725.000
31.04120 709.000
31.08176 739.000
31.12232 731.000
31.16288 787.000
31.20344 800.000
31.24400 879.000
31.28456 923.000
31.32512 971.000
31.36568 1012.000
31.40624 1054.000
31.44680 978.000
31.48736 1020.000
31.52792 1140.000
31.56849 1200.000
31.60905 1424.000
31.64961 1524.000
31.69017 1514.000
31.73073 1321.000
31.77129 1155.000
31.81185 1080.000
31.85241 925.000
31.89297 871.000
31.93353 966.000
31.97409 993.000
32.01465 1010.000
32.05521 1003.000
32.09577 970.000
32.13633 911.000
32.17689 797.000
32.21745 690.000
32.25801 667.000
32.29857 704.000
32.33913 733.000
32.37969 744.000
32.42025 737.000
32.46081 706.000
32.50137 639.000
32.54193 590.000
32.58249 584.000
32.62305 598.000
32.66361 607.000
32.70417 640.000
32.74473 581.000
32.78529 498.000
32.82585 568.000
32.86641 587.000
32.90697 580.000
32.94753 602.000
32.98809 598.000
33.02865 687.000
33.06921 750.000
33.10977 758.000
33.15033 794.000
33.19089 823.000
33.23145 748.000
33.27201 740.000
33.31257 670.000
33.35313 656.000
33.39369 664.000
33.43425 678.000
33.47482 660.000
33.51538 696.000
33.55594 738.000
33.59650 753.000
33.63706 766.000
33.67762 760.000
33.71818 735.000
33.75874 669.000
33.79930 621.000
33.83986 592.000
33.88042 607.000
33.92098 571.000
33.96154 568.000
34.00210 529.000
34.04266 546.000
34.08322 593.000
34.12378 534.000
34.16434 592.000
34.20490 582.000
34.24546 563.000
34.28602 520.000
34.32658 562.000
34.36714 506.000
34.40770 527.000
34.44826 534.000
34.48882 511.000
34.52938 578.000
34.56994 636.000
34.61050 637.000
34.65106 682.000
34.69162 661.000
34.73218 690.000
34.77274 667.000
34.81330 633.000
34.85386 778.000
34.89442 751.000
34.93498 861.000
34.97554 962.000
35.01610 978.000
35.05666 983.000
35.09722 945.000
35.13778 916.000
35.17834 905.000
35.21890 890.000
35.25946 900.000
35.30002 847.000
35.34058 842.000
35.38115 772.000
35.42171 635.000
35.46227 623.000
35.50283 609.000
35.54339 554.000
35.58395 553.000
35.62451 538.000
35.66507 515.000
35.70563 541.000
35.74619 562.000
35.78675 561.000
35.82731 554.000
35.86787 589.000
35.90843 662.000
35.94899 662.000
35.98955 711.000
36.03011 682.000
36.07067 788.000
36.11123 863.000
36.15179 917.000
36.19235 996.000
36.23291 993.000
36.27347 1000.000
36.31403 924.000
36.35459 866.000
36.39515 823.000
36.43571 741.000
36.47627 724.000
36.51683 664.000
36.55739 628.000
36.59795 617.000
36.63851 675.000
36.67907 599.000
36.71963 619.000
36.76019 685.000
36.80075 603.000
36.84131 597.000
36.88187 554.000
36.92243 562.000
36.96299 584.000
37.00355 522.000
37.04411 562.000
37.08467 576.000
37.12523 639.000
37.16579 639.000
37.20635 703.000
37.24691 694.000
37.28748 708.000
37.32804 730.000
37.36860 656.000
37.40916 635.000
37.44972 581.000
37.49028 579.000
37.53084 544.000
37.57140 495.000
37.61196 495.000
37.65252 488.000
37.69308 503.000
37.73364 507.000
37.77420 590.000
37.81476 558.000
37.85532 596.000
37.89588 684.000
37.93644 683.000
37.97700 666.000
38.01756 644.000
38.05812 659.000
38.09868 615.000
38.13924 611.000
38.17980 581.000
38.22036 561.000
38.26092 708.000
38.30148 671.000
38.34204 757.000
38.38260 700.000
38.42316 774.000
38.46372 763.000
38.50428 751.000
38.54484 655.000
38.58540 665.000
38.62596 595.000
38.66652 584.000
38.70708 606.000
38.74764 612.000
38.78820 671.000
38.82876 673.000
38.86932 652.000
38.90988 680.000
38.95044 790.000
38.99100 765.000
39.03156 798.000
39.07212 828.000
39.11268 741.000
39.15324 755.000
39.19381 632.000
39.23437 642.000
39.27493 580.000
39.31549 541.000
39.35605 585.000
39.39661 591.000
39.43717 629.000
39.47773 628.000
39.51829 643.000
39.55885 617.000
39.59941 647.000
39.63997 683.000
39.68053 648.000
39.72109 584.000
39.76165 561.000
39.80221 582.000
39.84277 638.000
39.88333 595.000
39.92389 669.000
39.96445 609.000
40.00501 633.000
40.04557 574.000
40.08613 657.000
40.12669 654.000
40.16725 646.000
40.20781 625.000
40.24837 661.000
40.28893 727.000
40.32949 691.000
40.37005 755.000
40.41061 816.000
40.45117 865.000
40.49173 901.000
40.53229 898.000
40.57285 950.000
40.61341 921.000
40.65397 826.000
40.69453 763.000
40.73509 715.000
40.77565 623.000
40.81621 543.000
40.85677 556.000
40.89733 531.000
40.93789 580.000
40.97845 547.000
41.01901 535.000
41.05957 566.000
41.10014 582.000
41.14070 620.000
41.18126 595.000
41.22182 571.000
41.26238 617.000
41.30294 592.000
41.34350 586.000
41.38406 581.000
41.42462 521.000
41.46518 526.000
41.50574 523.000
41.54630 487.000
41.58686 539.000
41.62742 503.000
41.66798 524.000
41.70854 534.000
41.74910 568.000
41.78966 549.000
41.83022 537.000
41.87078 537.000
41.91134 462.000
41.95190 521.000
41.99246 495.000
42.03302 433.000
42.07358 429.000
42.11414 459.000
42.15470 427.000
42.19526 453.000
42.23582 399.000
42.27638 457.000
42.31694 486.000
42.35750 525.000
42.39806 507.000
42.43862 552.000
42.47918 559.000
42.51974 564.000
42.56030 582.000
42.60086 566.000
42.64142 578.000
42.68198 587.000
42.72254 572.000
42.76310 537.000
42.80366 524.000
42.84422 518.000
42.88478 490.000
42.92534 539.000
42.96590 480.000
43.00647 490.000
43.04703 532.000
43.08759 542.000
43.12815 585.000
43.16871 617.000
43.20927 617.000
43.24983 653.000
43.29039 614.000
43.33095 534.000
43.37151 573.000
43.41207 598.000
43.45263 568.000
43.49319 610.000
43.53375 607.000
43.57431 547.000
43.61487 643.000
43.65543 608.000
43.69599 616.000
43.73655 622.000
43.77711 659.000
43.81767 606.000
43.85823 615.000
43.89879 584.000
43.93935 567.000
43.97991 616.000
44.02047 558.000
44.06103 564.000
44.10159 516.000
44.14215 591.000
44.18271 580.000
44.22327 594.000
44.26383 617.000
44.30439 661.000
44.34495 707.000
44.38551 742.000
44.42607 683.000
44.46663 724.000
44.50719 671.000
44.54775 725.000
44.58831 709.000
44.62887 694.000
44.66943 742.000
44.70999 657.000
44.75055 658.000
44.79111 680.000
44.83167 671.000
44.87223 640.000
44.91280 661.000
44.95336 581.000
44.99392 587.000
45.03448 598.000
45.07504 597.000
45.11560 621.000
45.15616 573.000
45.19672 638.000
45.23728 578.000
45.27784 599.000
45.31840 567.000
45.35896 548.000
45.39952 620.000
45.44008 595.000
45.48064 644.000
45.52120 623.000
45.56176 641.000
45.60232 566.000
45.64288 622.000
45.68344 522.000
45.72400 548.000
45.76456 557.000
45.80512 519.000
45.84568 529.000
45.88624 592.000
45.92680 499.000
45.96736 557.000
46.00792 515.000
46.04848 523.000
46.08904 515.000
46.12960 622.000
46.17016 550.000
46.21072 608.000
46.25128 574.000
46.29184 586.000
46.33240 589.000
46.37296 597.000
46.41352 602.000
46.45408 605.000
46.49464 622.000
46.53520 628.000
46.57576 652.000
46.61632 691.000
46.65688 618.000
46.69744 613.000
46.73800 577.000
46.77856 552.000
46.81913 549.000
46.85969 504.000
46.90025 487.000
46.94081 504.000
46.98137 525.000
47.02193 547.000
47.06249 554.000
47.10305 550.000
47.14361 509.000
47.18417 533.000
47.22473 546.000
47.26529 551.000
47.30585 541.000
47.34641 501.000
47.38697 542.000
47.42753 542.000
47.46809 579.000
47.50865 563.000
47.54921 609.000
47.58977 547.000
47.63033 600.000
47.67089 520.000
47.71145 576.000
47.75201 562.000
47.79257 553.000
47.83313 531.000
47.87369 586.000
47.91425 603.000
47.95481 540.000
47.99537 582.000
48.03593 537.000
48.07649 561.000
48.11705 558.000
48.15761 515.000
48.19817 490.000
48.23873 491.000
48.27929 526.000
48.31985 532.000
48.36041 517.000
48.40097 519.000
48.44153 504.000
48.48209 493.000
48.52265 529.000
48.56321 499.000
48.60377 486.000
48.64433 476.000
48.68489 483.000
48.72546 454.000
48.76602 481.000
48.80658 481.000
48.84714 494.000
48.88770 522.000
48.92826 481.000
48.96882 547.000
49.00938 509.000
49.04994 498.000
49.09050 507.000
49.13106 481.000
49.17162 510.000
49.21218 503.000
49.25274 497.000
49.29330 483.000
49.33386 492.000
49.37442 511.000
49.41498 459.000
49.45554 505.000
49.49610 500.000
49.53666 463.000
49.57722 461.000
49.61778 462.000
49.65834 448.000
49.69890 453.000
49.73946 468.000
49.78002 471.000
49.82058 481.000
49.86114 487.000
49.90170 459.000
49.94226 491.000
49.98282 436.000
50.00310 477.000