File: Task01/nick/files/ESI_material_XRD/steady_state/crystal_size_analysis/Volumes_EtOAc/1965_RVR_50ul_mill_EtOAc_081020_2.xy
5.00155 800.000
5.04211 793.000
5.08267 725.000
5.12323 808.000
5.16379 758.000
5.20435 738.000
5.24491 734.000
5.28547 737.000
5.32603 667.000
5.36659 682.000
5.40715 669.000
5.44771 695.000
5.48827 641.000
5.52883 597.000
5.56939 595.000
5.60995 602.000
5.65051 580.000
5.69107 569.000
5.73163 555.000
5.77219 545.000
5.81275 543.000
5.85331 523.000
5.89387 537.000
5.93443 506.000
5.97499 520.000
6.01555 448.000
6.05611 557.000
6.09667 518.000
6.13723 421.000
6.17779 503.000
6.21835 501.000
6.25891 490.000
6.29947 508.000
6.34003 639.000
6.38059 681.000
6.42115 705.000
6.46171 581.000
6.50227 497.000
6.54283 443.000
6.58339 486.000
6.62395 497.000
6.66451 497.000
6.70507 568.000
6.74564 638.000
6.78620 722.000
6.82676 747.000
6.86732 590.000
6.90788 468.000
6.94844 407.000
6.98900 362.000
7.02956 387.000
7.07012 337.000
7.11068 348.000
7.15124 358.000
7.19180 313.000
7.23236 316.000
7.27292 300.000
7.31348 341.000
7.35404 309.000
7.39460 279.000
7.43516 303.000
7.47572 322.000
7.51628 290.000
7.55684 324.000
7.59740 324.000
7.63796 290.000
7.67852 292.000
7.71908 307.000
7.75964 331.000
7.80020 305.000
7.84076 327.000
7.88132 267.000
7.92188 326.000
7.96244 307.000
8.00300 330.000
8.04356 321.000
8.08412 319.000
8.12468 362.000
8.16524 354.000
8.20580 405.000
8.24636 480.000
8.28692 615.000
8.32748 732.000
8.36804 880.000
8.40860 872.000
8.44916 880.000
8.48972 1130.000
8.53028 1698.000
8.57084 2922.000
8.61140 4223.000
8.65197 3738.000
8.69253 1838.000
8.73309 861.000
8.77365 548.000
8.81421 423.000
8.85477 403.000
8.89533 378.000
8.93589 353.000
8.97645 372.000
9.01701 356.000
9.05757 380.000
9.09813 366.000
9.13869 371.000
9.17925 377.000
9.21981 413.000
9.26037 425.000
9.30093 527.000
9.34149 692.000
9.38205 1153.000
9.42261 1639.000
9.46317 2356.000
9.50373 2183.000
9.54429 1080.000
9.58485 640.000
9.62541 560.000
9.66597 584.000
9.70653 787.000
9.74709 1255.000
9.78765 2019.000
9.82821 2758.000
9.86877 2711.000
9.90933 1496.000
9.94989 680.000
9.99045 527.000
10.03101 464.000
10.07157 453.000
10.11213 408.000
10.15269 354.000
10.19325 326.000
10.23381 357.000
10.27437 349.000
10.31493 354.000
10.35549 396.000
10.39605 421.000
10.43661 414.000
10.47717 356.000
10.51773 376.000
10.55830 380.000
10.59886 370.000
10.63942 339.000
10.67998 355.000
10.72054 373.000
10.76110 440.000
10.80166 611.000
10.84222 868.000
10.88278 1358.000
10.92334 1634.000
10.96390 1501.000
11.00446 772.000
11.04502 450.000
11.08558 368.000
11.12614 313.000
11.16670 303.000
11.20726 300.000
11.24782 317.000
11.28838 257.000
11.32894 316.000
11.36950 276.000
11.41006 267.000
11.45062 295.000
11.49118 265.000
11.53174 293.000
11.57230 276.000
11.61286 265.000
11.65342 268.000
11.69398 301.000
11.73454 282.000
11.77510 273.000
11.81566 250.000
11.85622 267.000
11.89678 255.000
11.93734 251.000
11.97790 294.000
12.01846 296.000
12.05902 272.000
12.09958 258.000
12.14014 327.000
12.18070 264.000
12.22126 285.000
12.26182 289.000
12.30238 317.000
12.34294 296.000
12.38350 319.000
12.42406 297.000
12.46463 278.000
12.50519 286.000
12.54575 241.000
12.58631 258.000
12.62687 272.000
12.66743 228.000
12.70799 271.000
12.74855 255.000
12.78911 267.000
12.82967 345.000
12.87023 324.000
12.91079 350.000
12.95135 391.000
12.99191 427.000
13.03247 399.000
13.07303 387.000
13.11359 410.000
13.15415 497.000
13.19471 547.000
13.23527 715.000
13.27583 658.000
13.31639 536.000
13.35695 445.000
13.39751 411.000
13.43807 475.000
13.47863 506.000
13.51919 663.000
13.55975 814.000
13.60031 1185.000
13.64087 1623.000
13.68143 1948.000
13.72199 1933.000
13.76255 1862.000
13.80311 1717.000
13.84367 1167.000
13.88423 631.000
13.92479 455.000
13.96535 368.000
14.00591 374.000
14.04647 322.000
14.08703 326.000
14.12759 288.000
14.16815 312.000
14.20871 306.000
14.24927 312.000
14.28983 303.000
14.33039 302.000
14.37096 296.000
14.41152 318.000
14.45208 325.000
14.49264 338.000
14.53320 311.000
14.57376 346.000
14.61432 442.000
14.65488 482.000
14.69544 496.000
14.73600 420.000
14.77656 529.000
14.81712 590.000
14.85768 729.000
14.89824 680.000
14.93880 522.000
14.97936 439.000
15.01992 337.000
15.06048 307.000
15.10104 340.000
15.14160 320.000
15.18216 275.000
15.22272 337.000
15.26328 354.000
15.30384 306.000
15.34440 363.000
15.38496 346.000
15.42552 419.000
15.46608 460.000
15.50664 581.000
15.54720 683.000
15.58776 752.000
15.62832 746.000
15.66888 706.000
15.70944 623.000
15.75000 576.000
15.79056 570.000
15.83112 607.000
15.87168 703.000
15.91224 940.000
15.95280 1400.000
15.99336 2097.000
16.03392 2913.000
16.07448 3227.000
16.11504 2251.000
16.15560 1165.000
16.19616 769.000
16.23672 692.000
16.27729 819.000
16.31785 981.000
16.35841 1222.000
16.39897 1418.000
16.43953 1196.000
16.48009 1126.000
16.52065 1205.000
16.56121 1481.000
16.60177 2120.000
16.64233 2708.000
16.68289 2614.000
16.72345 1702.000
16.76401 1016.000
16.80457 837.000
16.84513 671.000
16.88569 617.000
16.92625 584.000
16.96681 678.000
17.00737 691.000
17.04793 849.000
17.08849 1060.000
17.12905 1193.000
17.16961 1362.000
17.21017 1817.000
17.25073 2462.000
17.29129 3413.000
17.33185 3750.000
17.37241 2757.000
17.41297 1600.000
17.45353 982.000
17.49409 977.000
17.53465 1123.000
17.57521 1460.000
17.61577 2137.000
17.65633 3180.000
17.69689 4443.000
17.73745 5273.000
17.77801 4702.000
17.81857 2738.000
17.85913 1703.000
17.89969 1348.000
17.94025 1358.000
17.98081 1326.000
18.02137 1240.000
18.06193 1440.000
18.10249 1552.000
18.14305 1748.000
18.18362 2195.000
18.22418 2834.000
18.26474 4064.000
18.30530 5092.000
18.34586 5811.000
18.38642 5282.000
18.42698 3456.000
18.46754 1873.000
18.50810 1131.000
18.54866 950.000
18.58922 903.000
18.62978 971.000
18.67034 1065.000
18.71090 1313.000
18.75146 1387.000
18.79202 1800.000
18.83258 2386.000
18.87314 2796.000
18.91370 2650.000
18.95426 2056.000
18.99482 1617.000
19.03538 1389.000
19.07594 1061.000
19.11650 805.000
19.15706 813.000
19.19762 836.000
19.23818 975.000
19.27874 1155.000
19.31930 1328.000
19.35986 1486.000
19.40042 1884.000
19.44098 2357.000
19.48154 2825.000
19.52210 2517.000
19.56266 2018.000
19.60322 1532.000
19.64378 1729.000
19.68434 2072.000
19.72490 2522.000
19.76546 2677.000
19.80602 2455.000
19.84658 2170.000
19.88714 2230.000
19.92770 3008.000
19.96826 3628.000
20.00882 4472.000
20.04938 4169.000
20.08995 2908.000
20.13051 2034.000
20.17107 1628.000
20.21163 1603.000
20.25219 1614.000
20.29275 1790.000
20.33331 1949.000
20.37387 1864.000
20.41443 1622.000
20.45499 1709.000
20.49555 1959.000
20.53611 2549.000
20.57667 3359.000
20.61723 3476.000
20.65779 2731.000
20.69835 1698.000
20.73891 1093.000
20.77947 951.000
20.82003 945.000
20.86059 1001.000
20.90115 1048.000
20.94171 1037.000
20.98227 944.000
21.02283 819.000
21.06339 814.000
21.10395 874.000
21.14451 914.000
21.18507 1133.000
21.22563 1312.000
21.26619 1574.000
21.30675 1719.000
21.34731 2188.000
21.38787 2801.000
21.42843 3264.000
21.46899 3448.000
21.50955 3337.000
21.55011 3584.000
21.59067 4315.000
21.63123 5215.000
21.67179 5405.000
21.71235 4298.000
21.75291 2541.000
21.79347 1485.000
21.83403 1182.000
21.87459 1067.000
21.91515 1071.000
21.95571 1082.000
21.99628 1210.000
22.03684 1403.000
22.07740 1617.000
22.11796 2063.000
22.15852 2300.000
22.19908 2158.000
22.23964 1572.000
22.28020 1013.000
22.32076 846.000
22.36132 774.000
22.40188 809.000
22.44244 839.000
22.48300 976.000
22.52356 988.000
22.56412 1056.000
22.60468 1134.000
22.64524 1231.000
22.68580 1436.000
22.72636 1594.000
22.76692 1358.000
22.80748 1116.000
22.84804 887.000
22.88860 754.000
22.92916 718.000
22.96972 831.000
23.01028 821.000
23.05084 911.000
23.09140 785.000
23.13196 742.000
23.17252 689.000
23.21308 773.000
23.25364 831.000
23.29420 932.000
23.33476 1092.000
23.37532 1362.000
23.41588 1585.000
23.45644 1533.000
23.49700 1290.000
23.53756 1013.000
23.57812 1018.000
23.61868 1078.000
23.65924 1090.000
23.69980 1056.000
23.74036 979.000
23.78092 911.000
23.82148 928.000
23.86204 1078.000
23.90261 1189.000
23.94317 1300.000
23.98373 1183.000
24.02429 1304.000
24.06485 1256.000
24.10541 1252.000
24.14597 1354.000
24.18653 1280.000
24.22709 1147.000
24.26765 940.000
24.30821 920.000
24.34877 951.000
24.38933 1034.000
24.42989 1102.000
24.47045 905.000
24.51101 847.000
24.55157 728.000
24.59213 848.000
24.63269 956.000
24.67325 1139.000
24.71381 1310.000
24.75437 1443.000
24.79493 1139.000
24.83549 1118.000
24.87605 875.000
24.91661 779.000
24.95717 727.000
24.99773 644.000
25.03829 681.000
25.07885 840.000
25.11941 1002.000
25.15997 1310.000
25.20053 1593.000
25.24109 1958.000
25.28165 2335.000
25.32221 2587.000
25.36277 2178.000
25.40333 1800.000
25.44389 1415.000
25.48445 1148.000
25.52501 872.000
25.56557 775.000
25.60613 763.000
25.64669 835.000
25.68725 940.000
25.72781 1154.000
25.76837 1256.000
25.80893 1304.000
25.84950 1094.000
25.89006 1061.000
25.93062 1017.000
25.97118 1079.000
26.01174 1251.000
26.05230 1494.000
26.09286 1542.000
26.13342 1549.000
26.17398 1428.000
26.21454 1180.000
26.25510 1163.000
26.29566 1239.000
26.33622 1119.000
26.37678 1079.000
26.41734 1176.000
26.45790 1124.000
26.49846 1092.000
26.53902 1007.000
26.57958 764.000
26.62014 666.000
26.66070 645.000
26.70126 591.000
26.74182 663.000
26.78238 748.000
26.82294 814.000
26.86350 888.000
26.90406 1023.000
26.94462 889.000
26.98518 760.000
27.02574 596.000
27.06630 597.000
27.10686 518.000
27.14742 537.000
27.18798 546.000
27.22854 572.000
27.26910 603.000
27.30966 673.000
27.35022 628.000
27.39078 634.000
27.43134 677.000
27.47190 705.000
27.51246 708.000
27.55302 630.000
27.59358 582.000
27.63414 514.000
27.67470 494.000
27.71526 432.000
27.75583 472.000
27.79639 432.000
27.83695 441.000
27.87751 447.000
27.91807 488.000
27.95863 468.000
27.99919 514.000
28.03975 433.000
28.08031 468.000
28.12087 455.000
28.16143 464.000
28.20199 478.000
28.24255 551.000
28.28311 583.000
28.32367 683.000
28.36423 797.000
28.40479 939.000
28.44535 1105.000
28.48591 1259.000
28.52647 1429.000
28.56703 1585.000
28.60759 1489.000
28.64815 1329.000
28.68871 1159.000
28.72927 1073.000
28.76983 940.000
28.81039 750.000
28.85095 653.000
28.89151 577.000
28.93207 517.000
28.97263 502.000
29.01319 510.000
29.05375 510.000
29.09431 515.000
29.13487 570.000
29.17543 553.000
29.21599 569.000
29.25655 548.000
29.29711 474.000
29.33767 477.000
29.37823 487.000
29.41879 475.000
29.45935 493.000
29.49991 529.000
29.54047 549.000
29.58103 630.000
29.62159 753.000
29.66216 885.000
29.70272 1015.000
29.74328 1103.000
29.78384 1231.000
29.82440 1152.000
29.86496 1104.000
29.90552 1012.000
29.94608 1005.000
29.98664 988.000
30.02720 1125.000
30.06776 1009.000
30.10832 963.000
30.14888 913.000
30.18944 811.000
30.23000 806.000
30.27056 707.000
30.31112 669.000
30.35168 679.000
30.39224 586.000
30.43280 545.000
30.47336 463.000
30.51392 426.000
30.55448 447.000
30.59504 390.000
30.63560 496.000
30.67616 501.000
30.71672 521.000
30.75728 507.000
30.79784 519.000
30.83840 581.000
30.87896 577.000
30.91952 609.000
30.96008 563.000
31.00064 542.000
31.04120 528.000
31.08176 593.000
31.12232 548.000
31.16288 556.000
31.20344 640.000
31.24400 691.000
31.28456 732.000
31.32512 804.000
31.36568 794.000
31.40624 792.000
31.44680 804.000
31.48736 815.000
31.52792 1016.000
31.56849 1075.000
31.60905 1147.000
31.64961 1222.000
31.69017 1127.000
31.73073 986.000
31.77129 888.000
31.81185 825.000
31.85241 721.000
31.89297 683.000
31.93353 752.000
31.97409 794.000
32.01465 783.000
32.05521 789.000
32.09577 684.000
32.13633 660.000
32.17689 607.000
32.21745 548.000
32.25801 502.000
32.29857 515.000
32.33913 505.000
32.37969 612.000
32.42025 558.000
32.46081 510.000
32.50137 495.000
32.54193 472.000
32.58249 473.000
32.62305 471.000
32.66361 476.000
32.70417 412.000
32.74473 415.000
32.78529 440.000
32.82585 431.000
32.86641 449.000
32.90697 430.000
32.94753 514.000
32.98809 512.000
33.02865 565.000
33.06921 655.000
33.10977 655.000
33.15033 656.000
33.19089 608.000
33.23145 537.000
33.27201 495.000
33.31257 498.000
33.35313 470.000
33.39369 541.000
33.43425 544.000
33.47482 506.000
33.51538 543.000
33.55594 600.000
33.59650 615.000
33.63706 670.000
33.67762 652.000
33.71818 579.000
33.75874 565.000
33.79930 483.000
33.83986 476.000
33.88042 474.000
33.92098 445.000
33.96154 423.000
34.00210 413.000
34.04266 412.000
34.08322 430.000
34.12378 479.000
34.16434 433.000
34.20490 415.000
34.24546 399.000
34.28602 424.000
34.32658 389.000
34.36714 392.000
34.40770 378.000
34.44826 375.000
34.48882 428.000
34.52938 442.000
34.56994 449.000
34.61050 549.000
34.65106 509.000
34.69162 490.000
34.73218 604.000
34.77274 547.000
34.81330 604.000
34.85386 592.000
34.89442 645.000
34.93498 716.000
34.97554 775.000
35.01610 792.000
35.05666 807.000
35.09722 769.000
35.13778 643.000
35.17834 674.000
35.21890 656.000
35.25946 701.000
35.30002 742.000
35.34058 631.000
35.38115 575.000
35.42171 511.000
35.46227 431.000
35.50283 414.000
35.54339 447.000
35.58395 465.000
35.62451 428.000
35.66507 408.000
35.70563 415.000
35.74619 403.000
35.78675 431.000
35.82731 460.000
35.86787 520.000
35.90843 562.000
35.94899 494.000
35.98955 547.000
36.03011 671.000
36.07067 637.000
36.11123 667.000
36.15179 750.000
36.19235 824.000
36.23291 827.000
36.27347 795.000
36.31403 760.000
36.35459 634.000
36.39515 596.000
36.43571 573.000
36.47627 485.000
36.51683 507.000
36.55739 475.000
36.59795 457.000
36.63851 510.000
36.67907 466.000
36.71963 489.000
36.76019 508.000
36.80075 466.000
36.84131 462.000
36.88187 418.000
36.92243 424.000
36.96299 388.000
37.00355 445.000
37.04411 451.000
37.08467 486.000
37.12523 520.000
37.16579 529.000
37.20635 559.000
37.24691 555.000
37.28748 569.000
37.32804 550.000
37.36860 529.000
37.40916 480.000
37.44972 433.000
37.49028 427.000
37.53084 412.000
37.57140 407.000
37.61196 408.000
37.65252 391.000
37.69308 381.000
37.73364 427.000
37.77420 428.000
37.81476 431.000
37.85532 498.000
37.89588 542.000
37.93644 519.000
37.97700 570.000
38.01756 506.000
38.05812 499.000
38.09868 510.000
38.13924 494.000
38.17980 465.000
38.22036 509.000
38.26092 561.000
38.30148 579.000
38.34204 573.000
38.38260 578.000
38.42316 599.000
38.46372 537.000
38.50428 532.000
38.54484 501.000
38.58540 455.000
38.62596 452.000
38.66652 427.000
38.70708 454.000
38.74764 540.000
38.78820 497.000
38.82876 507.000
38.86932 567.000
38.90988 579.000
38.95044 628.000
38.99100 684.000
39.03156 668.000
39.07212 651.000
39.11268 545.000
39.15324 510.000
39.19381 491.000
39.23437 461.000
39.27493 491.000
39.31549 486.000
39.35605 446.000
39.39661 456.000
39.43717 499.000
39.47773 474.000
39.51829 556.000
39.55885 550.000
39.59941 542.000
39.63997 505.000
39.68053 471.000
39.72109 464.000
39.76165 448.000
39.80221 475.000
39.84277 449.000
39.88333 454.000
39.92389 459.000
39.96445 492.000
40.00501 508.000
40.04557 510.000
40.08613 516.000
40.12669 538.000
40.16725 493.000
40.20781 517.000
40.24837 536.000
40.28893 546.000
40.32949 611.000
40.37005 616.000
40.41061 698.000
40.45117 736.000
40.49173 783.000
40.53229 813.000
40.57285 731.000
40.61341 666.000
40.65397 674.000
40.69453 564.000
40.73509 506.000
40.77565 471.000
40.81621 467.000
40.85677 462.000
40.89733 482.000
40.93789 432.000
40.97845 453.000
41.01901 462.000
41.05957 448.000
41.10014 511.000
41.14070 498.000
41.18126 454.000
41.22182 466.000
41.26238 519.000
41.30294 479.000
41.34350 433.000
41.38406 452.000
41.42462 414.000
41.46518 445.000
41.50574 412.000
41.54630 377.000
41.58686 410.000
41.62742 403.000
41.66798 406.000
41.70854 408.000
41.74910 428.000
41.78966 435.000
41.83022 411.000
41.87078 405.000
41.91134 358.000
41.95190 382.000
41.99246 367.000
42.03302 381.000
42.07358 350.000
42.11414 397.000
42.15470 396.000
42.19526 364.000
42.23582 363.000
42.27638 390.000
42.31694 391.000
42.35750 401.000
42.39806 431.000
42.43862 446.000
42.47918 487.000
42.51974 481.000
42.56030 409.000
42.60086 478.000
42.64142 461.000
42.68198 449.000
42.72254 424.000
42.76310 408.000
42.80366 412.000
42.84422 413.000
42.88478 413.000
42.92534 391.000
42.96590 444.000
43.00647 438.000
43.04703 434.000
43.08759 458.000
43.12815 511.000
43.16871 500.000
43.20927 508.000
43.24983 481.000
43.29039 467.000
43.33095 444.000
43.37151 454.000
43.41207 473.000
43.45263 478.000
43.49319 463.000
43.53375 466.000
43.57431 474.000
43.61487 491.000
43.65543 468.000
43.69599 483.000
43.73655 471.000
43.77711 504.000
43.81767 447.000
43.85823 457.000
43.89879 487.000
43.93935 455.000
43.97991 451.000
44.02047 481.000
44.06103 419.000
44.10159 430.000
44.14215 444.000
44.18271 458.000
44.22327 478.000
44.26383 488.000
44.30439 564.000
44.34495 601.000
44.38551 598.000
44.42607 543.000
44.46663 600.000
44.50719 630.000
44.54775 583.000
44.58831 572.000
44.62887 510.000
44.66943 571.000
44.70999 587.000
44.75055 512.000
44.79111 534.000
44.83167 517.000
44.87223 513.000
44.91280 443.000
44.95336 488.000
44.99392 468.000
45.03448 468.000
45.07504 441.000
45.11560 496.000
45.15616 450.000
45.19672 513.000
45.23728 473.000
45.27784 459.000
45.31840 473.000
45.35896 497.000
45.39952 453.000
45.44008 488.000
45.48064 492.000
45.52120 467.000
45.56176 506.000
45.60232 449.000
45.64288 437.000
45.68344 460.000
45.72400 405.000
45.76456 457.000
45.80512 452.000
45.84568 454.000
45.88624 434.000
45.92680 417.000
45.96736 417.000
46.00792 463.000
46.04848 479.000
46.08904 457.000
46.12960 463.000
46.17016 480.000
46.21072 465.000
46.25128 516.000
46.29184 475.000
46.33240 472.000
46.37296 501.000
46.41352 533.000
46.45408 531.000
46.49464 533.000
46.53520 523.000
46.57576 544.000
46.61632 534.000
46.65688 516.000
46.69744 490.000
46.73800 477.000
46.77856 445.000
46.81913 451.000
46.85969 413.000
46.90025 421.000
46.94081 423.000
46.98137 454.000
47.02193 436.000
47.06249 445.000
47.10305 389.000
47.14361 429.000
47.18417 410.000
47.22473 450.000
47.26529 401.000
47.30585 460.000
47.34641 459.000
47.38697 494.000
47.42753 486.000
47.46809 467.000
47.50865 447.000
47.54921 440.000
47.58977 439.000
47.63033 456.000
47.67089 443.000
47.71145 414.000
47.75201 392.000
47.79257 463.000
47.83313 440.000
47.87369 480.000
47.91425 423.000
47.95481 439.000
47.99537 442.000
48.03593 457.000
48.07649 423.000
48.11705 440.000
48.15761 422.000
48.19817 425.000
48.23873 455.000
48.27929 459.000
48.31985 423.000
48.36041 452.000
48.40097 444.000
48.44153 433.000
48.48209 415.000
48.52265 383.000
48.56321 376.000
48.60377 389.000
48.64433 435.000
48.68489 392.000
48.72546 398.000
48.76602 402.000
48.80658 404.000
48.84714 444.000
48.88770 392.000
48.92826 429.000
48.96882 394.000
49.00938 473.000
49.04994 442.000
49.09050 428.000
49.13106 429.000
49.17162 434.000
49.21218 375.000
49.25274 387.000
49.29330 392.000
49.33386 410.000
49.37442 395.000
49.41498 388.000
49.45554 377.000
49.49610 368.000
49.53666 409.000
49.57722 339.000
49.61778 371.000
49.65834 371.000
49.69890 372.000
49.73946 418.000
49.78002 428.000
49.82058 412.000
49.86114 378.000
49.90170 408.000
49.94226 356.000
49.98282 349.000
50.00310 401.000